File: 李院长 MgO-C C15-基 1400 @ S2-1.csv
#EXPORTTYPE:       ,DATA ALL
#FILE:             ,李院长 MgO-C C15-骨 C15-基 1400.ngb-dl9
#FORMAT:           ,NETZSCH5
#FTYPE:            ,ANSI
#IDENTITY:         ,C15-基
#DECIMAL:          ,POINT
#SEPARATOR:        ,COMMA
#MTYPE:            ,DIL
#INSTRUMENT:       ,NETZSCH DIL 402SU
#PROJECT:          ,123
#DATE/TIME:        ,2025/6/5 17:20:27 (UTC+8)
#CORR. FILE:       ,石墨炉 1400度-1.ngb-cl9
#TEMPCAL:          ,TCALZERO.TMX
#LABORATORY:       ,wust
#OPERATOR:         ,
#REMARK:           ,
#SAMPLE:           ,镁碳
#SAMPLE LENGTH /mm:,25.68
#MATERIAL:         ,镁碳
#MEASMODE:         ,Standard Expansion
#M.RANGE /μm:      ,50000
#CORR. CODE:       ,080
#RANGE:            ,25°C/5.0(K/min)/1403°C
#SEGMENT:          ,S1/2
#SEG. 1:           ,25°C/5.0(K/min)/1403°C
#Tref:             ,30.0°C

##Temp./°C,Time/min,dL/Lo,Force/N,Gas Flow(protective)/(ml/min),m. CTE(1)/(1/K)
  50.00000,  4.67629,2.635410e-004,0.30000,60.00000,1.086820e-005
  52.00000,  5.00197,2.737347e-004,0.30002,60.00000,1.033530e-005
  54.00000,  5.32484,2.816676e-004,0.30002,60.00000,9.801406e-006
  56.00000,  5.67306,2.897740e-004,0.29997,60.00000,9.356532e-006
  58.00000,  6.07617,3.018394e-004,0.30002,60.00000,9.121203e-006
  60.00000,  6.55673,3.204930e-004,0.30000,60.00000,9.139734e-006
  62.00000,  7.04832,3.428707e-004,0.30002,60.00000,9.269418e-006
  64.00000,  7.47456,3.615675e-004,0.30002,60.00000,9.275796e-006
  66.00000,  7.84358,3.751657e-004,0.30001,60.00000,9.137666e-006
  68.00000,  8.17885,3.851117e-004,0.30000,60.00000,8.917234e-006
  70.00000,  8.50803,3.931150e-004,0.30001,60.00000,8.667614e-006
  72.00000,  8.86171,4.014551e-004,0.29998,60.00000,8.451061e-006
  74.00000,  9.27255,4.144312e-004,0.30001,60.00000,8.363264e-006
  76.00000,  9.75466,4.347981e-004,0.30000,60.00000,8.444563e-006
  78.00000, 10.23250,4.578311e-004,0.30002,60.00000,8.575088e-006
  80.00000, 10.65146,4.766942e-004,0.29998,60.00000,8.609203e-006
  82.00000, 11.02082,4.908998e-004,0.29998,60.00000,8.550865e-006
  84.00000, 11.36279,5.015950e-004,0.30000,60.00000,8.430704e-006
  86.00000, 11.70332,5.110192e-004,0.30002,60.00000,8.296780e-006
  88.00000, 12.07337,5.223192e-004,0.29998,60.00000,8.205682e-006
  90.00000, 12.50203,5.383868e-004,0.30002,60.00000,8.199890e-006
  92.00000, 12.98162,5.589737e-004,0.30000,60.00000,8.269326e-006
  94.00000, 13.43971,5.796060e-004,0.30004,60.00000,8.333508e-006
  96.00000, 13.84744,5.967750e-004,0.30002,60.00000,8.341650e-006
  98.00000, 14.21727,6.098294e-004,0.30002,60.00000,8.287979e-006
 100, 14.56579,6.210216e-004,0.30002,60.00000,8.209873e-006
 102, 14.91782,6.322363e-004,0.30001,60.00000,8.137110e-006
 104, 15.30147,6.464864e-004,0.30001,60.00000,8.109070e-006
 106, 15.73972,6.654167e-004,0.29999,60.00000,8.145279e-006
 108, 16.20790,6.869178e-004,0.29999,60.00000,8.212644e-006
 110, 16.65413,7.064537e-004,0.29999,60.00000,8.252069e-006
 112, 17.06100,7.227317e-004,0.30001,60.00000,8.249946e-006
 114, 17.43731,7.362194e-004,0.30001,60.00000,8.213704e-006
 116, 17.79684,7.477868e-004,0.30001,60.00000,8.156628e-006
 118, 18.15608,7.601860e-004,0.29998,60.00000,8.111242e-006
 120, 18.53695,7.742600e-004,0.30001,60.00000,8.087033e-006
 122, 18.95404,7.909697e-004,0.29999,60.00000,8.093744e-006
 124, 19.39697,8.094855e-004,0.30002,60.00000,8.118707e-006
 126, 19.83604,8.277925e-004,0.29999,60.00000,8.140396e-006
 128, 20.25404,8.447918e-004,0.30000,60.00000,8.148275e-006
 130, 20.65146,8.598619e-004,0.30000,60.00000,8.136035e-006
 132, 21.03433,8.736100e-004,0.29998,60.00000,8.110605e-006
 134, 21.41028,8.867924e-004,0.29999,60.00000,8.081623e-006
 136, 21.78865,9.004251e-004,0.29998,60.00000,8.057211e-006
 138, 22.17657,9.146612e-004,0.29999,60.00000,8.040157e-006
 140, 22.58108,9.302694e-004,0.29998,60.00000,8.035620e-006
 142, 23.00169,9.465099e-004,0.29997,60.00000,8.037710e-006
 144, 23.43484,9.643215e-004,0.30003,60.00000,8.052521e-006
 146, 23.87235,9.818007e-004,0.29999,60.00000,8.064427e-006
 148, 24.30753,9.987089e-004,0.30000,60.00000,8.071284e-006
 150, 24.73127,1.014790e-003,0.29999,60.00000,8.070823e-006
 152, 25.14223,1.029852e-003,0.30005,60.00000,8.062422e-006
 154, 25.54219,1.044975e-003,0.30004,60.00000,8.053616e-006
 156, 25.93594,1.059674e-003,0.29998,60.00000,8.042658e-006
 158, 26.32778,1.074332e-003,0.30003,60.00000,8.031378e-006
 160, 26.72207,1.089164e-003,0.30003,60.00000,8.021589e-006
 162, 27.12273,1.103926e-003,0.30000,60.00000,8.012192e-006
 164, 27.53199,1.119881e-003,0.29999,60.00000,8.011574e-006
 166, 27.94801,1.135928e-003,0.30000,60.00000,8.011873e-006
 168, 28.36844,1.151717e-003,0.30001,60.00000,8.010002e-006
 170, 28.78940,1.166905e-003,0.30000,60.00000,8.004108e-006
 172, 29.20694,1.182136e-003,0.30002,60.00000,7.999096e-006
 174, 29.61896,1.197530e-003,0.29999,60.00000,7.994503e-006
 176, 30.02516,1.212213e-003,0.29999,60.00000,7.985744e-006
 178, 30.42635,1.226880e-003,0.30003,60.00000,7.976835e-006
 180, 30.82488,1.241689e-003,0.30002,60.00000,7.969248e-006
 182, 31.22355,1.257105e-003,0.30007,60.00000,7.965811e-006
 184, 31.62438,1.273863e-003,0.29996,60.00000,7.971155e-006
 186, 32.02602,1.290211e-003,0.29999,60.00000,7.973774e-006
 188, 32.42996,1.307153e-003,0.29999,60.00000,7.979890e-006
 190, 32.83728,1.323620e-003,0.29999,60.00000,7.983162e-006
 192, 33.24681,1.339918e-003,0.30000,60.00000,7.985215e-006
 194, 33.65542,1.355963e-003,0.30001,60.00000,7.985797e-006
 196, 34.06273,1.371975e-003,0.30000,60.00000,7.985964e-006
 198, 34.46832,1.387519e-003,0.30001,60.00000,7.983415e-006
 200, 34.87252,1.403752e-003,0.30001,60.00000,7.985190e-006
 202, 35.27544,1.419369e-003,0.29998,60.00000,7.983030e-006
 204, 35.67622,1.434704e-003,0.30000,60.00000,7.979377e-006
 206, 36.07647,1.450159e-003,0.29999,60.00000,7.976240e-006
 208, 36.47689,1.465701e-003,0.30001,60.00000,7.974010e-006
 210, 36.87689,1.481866e-003,0.30003,60.00000,7.975386e-006
 212, 37.27579,1.498173e-003,0.29999,60.00000,7.977305e-006
 214, 37.67410,1.514792e-003,0.29998,60.00000,7.980864e-006
 216, 38.07124,1.531344e-003,0.29999,60.00000,7.984089e-006
 218, 38.46737,1.547906e-003,0.30001,60.00000,7.987253e-006
 220, 38.86168,1.564500e-003,0.30002,60.00000,7.990430e-006
 222, 39.25547,1.581045e-003,0.29998,60.00000,7.993425e-006
 224, 39.64928,1.597308e-003,0.30000,60.00000,7.994736e-006
 226, 40.04442,1.613146e-003,0.30000,60.00000,7.993990e-006
 228, 40.44090,1.628914e-003,0.29998,60.00000,7.992792e-006
 230, 40.83796,1.644454e-003,0.30001,60.00000,7.990610e-006
 232, 41.23555,1.660084e-003,0.30000,60.00000,7.989030e-006
 234, 41.63318,1.675681e-003,0.30001,60.00000,7.987253e-006
 236, 42.03036,1.691137e-003,0.30000,60.00000,7.984502e-006
 238, 42.42640,1.707087e-003,0.30003,60.00000,7.984310e-006
 240, 42.82164,1.723431e-003,0.29998,60.00000,7.986347e-006
 242, 43.21585,1.739662e-003,0.29998,60.00000,7.987413e-006
 244, 43.60917,1.755961e-003,0.29998,60.00000,7.988996e-006
 246, 44.00267,1.772846e-003,0.30002,60.00000,7.993029e-006
 248, 44.39716,1.789729e-003,0.30000,60.00000,7.997390e-006
 250, 44.79244,1.806733e-003,0.30002,60.00000,8.001925e-006
 252, 45.18945,1.823720e-003,0.30003,60.00000,8.006256e-006
 254, 45.58909,1.840547e-003,0.29996,60.00000,8.010051e-006
 256, 45.98995,1.857003e-003,0.30001,60.00000,8.011852e-006
 258, 46.39084,1.873297e-003,0.29998,60.00000,8.013072e-006
 260, 46.79151,1.889449e-003,0.29998,60.00000,8.013574e-006
 262, 47.19323,1.905054e-003,0.30004,60.00000,8.011740e-006
 264, 47.59718,1.921105e-003,0.30001,60.00000,8.011951e-006
 266, 48.00308,1.937397e-003,0.30000,60.00000,8.013124e-006
 268, 48.41027,1.953964e-003,0.29997,60.00000,8.015324e-006
 270, 48.81806,1.970489e-003,0.30001,60.00000,8.017394e-006
 272, 49.22586,1.987463e-003,0.30001,60.00000,8.021176e-006
 274, 49.63219,2.003493e-003,0.30002,60.00000,8.021229e-006
 276, 50.03657,2.019802e-003,0.30002,60.00000,8.022276e-006
 278, 50.43994,2.035747e-003,0.30001,60.00000,8.021915e-006
 280, 50.84262,2.051698e-003,0.30000,60.00000,8.021478e-006
 282, 51.24548,2.067864e-003,0.30001,60.00000,8.022151e-006
 284, 51.64745,2.084160e-003,0.30000,60.00000,8.023061e-006
 286, 52.05015,2.100846e-003,0.30002,60.00000,8.025488e-006
 288, 52.45426,2.117457e-003,0.30002,60.00000,8.027801e-006
 290, 52.86068,2.134718e-003,0.29999,60.00000,8.032288e-006
 292, 53.26958,2.151360e-003,0.30000,60.00000,8.034635e-006
 294, 53.67941,2.167737e-003,0.29998,60.00000,8.035591e-006
 296, 54.10037,2.184637e-003,0.30001,60.00000,8.037131e-006
 298, 54.52588,2.199963e-003,0.30000,60.00000,8.036063e-006
 300, 54.92554,2.215252e-003,0.29997,60.00000,8.033179e-006
 302, 55.32020,2.231128e-003,0.30000,60.00000,8.032403e-006
 304, 55.71304,2.246288e-003,0.30000,60.00000,8.028963e-006
 306, 56.10641,2.261485e-003,0.30000,60.00000,8.025931e-006
 308, 56.50262,2.277307e-003,0.30001,60.00000,8.025101e-006
 310, 56.90340,2.292954e-003,0.30002,60.00000,8.023783e-006
 312, 57.30757,2.308777e-003,0.30002,60.00000,8.023097e-006
 314, 57.71342,2.324466e-003,0.30000,60.00000,8.021705e-006
 316, 58.11968,2.339729e-003,0.29997,60.00000,8.018950e-006
 318, 58.52182,2.355053e-003,0.30002,60.00000,8.016475e-006
 320, 58.92226,2.370788e-003,0.29998,60.00000,8.015535e-006
 322, 59.32320,2.386784e-003,0.30000,60.00000,8.015403e-006
 324, 59.72352,2.402773e-003,0.30000,60.00000,8.015224e-006
 326, 60.12620,2.418877e-003,0.30002,60.00000,8.015444e-006
 328, 60.53126,2.435598e-003,0.30002,60.00000,8.017710e-006
 330, 60.93677,2.452257e-003,0.30005,60.00000,8.019708e-006
 332, 61.34282,2.468704e-003,0.29999,60.00000,8.021124e-006
 334, 61.74954,2.484263e-003,0.30000,60.00000,8.019487e-006
 336, 62.15600,2.500745e-003,0.29998,60.00000,8.020973e-006
 338, 62.56355,2.516732e-003,0.29998,60.00000,8.020832e-006
 340, 62.97160,2.532768e-003,0.30002,60.00000,8.020797e-006
 342, 63.38009,2.548928e-003,0.30002,60.00000,8.021194e-006
 344, 63.79005,2.564642e-003,0.30002,60.00000,8.020171e-006
 346, 64.20080,2.580470e-003,0.30005,60.00000,8.019607e-006
 348, 64.61050,2.596739e-003,0.30000,60.00000,8.020181e-006
 350, 65.01890,2.611474e-003,0.29997,60.00000,8.016097e-006
 352, 65.42609,2.626853e-003,0.30000,60.00000,8.014065e-006
 354, 65.83269,2.642219e-003,0.30000,60.00000,8.012014e-006
 356, 66.24064,2.658023e-003,0.30004,60.00000,8.011370e-006
 358, 66.65126,2.674420e-003,0.29998,60.00000,8.012484e-006
 360, 67.06540,2.691436e-003,0.29997,60.00000,8.015448e-006
 362, 67.48135,2.708247e-003,0.29999,60.00000,8.017869e-006
 364, 67.89446,2.724971e-003,0.30000,60.00000,8.019994e-006
 366, 68.30410,2.741659e-003,0.30001,60.00000,8.021875e-006
 368, 68.71107,2.758082e-003,0.29999,60.00000,8.022881e-006
 370, 69.11953,2.774295e-003,0.30000,60.00000,8.023503e-006
 372, 69.53062,2.791004e-003,0.30003,60.00000,8.025344e-006
 374, 69.94366,2.807509e-003,0.30000,60.00000,8.026758e-006
 376, 70.35514,2.823658e-003,0.30001,60.00000,8.027071e-006
 378, 70.76426,2.839643e-003,0.30003,60.00000,8.026831e-006
 380, 71.16926,2.855539e-003,0.30003,60.00000,8.026350e-006
 382, 71.57153,2.871001e-003,0.30000,60.00000,8.024636e-006
 384, 71.97315,2.887337e-003,0.30000,60.00000,8.025484e-006
 386, 72.37589,2.902680e-003,0.30000,60.00000,8.023485e-006
 388, 72.78014,2.918146e-003,0.29999,60.00000,8.021904e-006
 390, 73.18674,2.933386e-003,0.30007,60.00000,8.019636e-006
 392, 73.59410,2.949135e-003,0.29999,60.00000,8.018887e-006
 394, 73.99975,2.964767e-003,0.29999,60.00000,8.017709e-006
 396, 74.40374,2.980496e-003,0.30002,60.00000,8.016883e-006
 398, 74.80857,2.996356e-003,0.30001,60.00000,8.016392e-006
 400, 75.21377,3.012139e-003,0.30003,60.00000,8.015762e-006
 402, 75.61835,3.027742e-003,0.30004,60.00000,8.014598e-006
 404, 76.02320,3.043856e-003,0.29999,60.00000,8.014782e-006
 406, 76.42969,3.059546e-003,0.30001,60.00000,8.013972e-006
 408, 76.83693,3.074863e-003,0.30000,60.00000,8.012077e-006
 410, 77.24561,3.090475e-003,0.29999,60.00000,8.010923e-006
 412, 77.65566,3.106038e-003,0.29999,60.00000,8.009710e-006
 414, 78.06590,3.121444e-003,0.30002,60.00000,8.008170e-006
 416, 78.47551,3.136958e-003,0.29998,60.00000,8.006820e-006
 418, 78.88343,3.151491e-003,0.29999,60.00000,8.003035e-006
 420, 79.28828,3.166237e-003,0.30001,60.00000,7.999842e-006
 422, 79.69124,3.180942e-003,0.30002,60.00000,7.996513e-006
 424, 80.09476,3.196497e-003,0.29998,60.00000,7.995285e-006
 426, 80.50106,3.211824e-003,0.30002,60.00000,7.993612e-006
 428, 80.91092,3.228039e-003,0.29999,60.00000,7.994230e-006
 430, 81.32386,3.244142e-003,0.30000,60.00000,7.994580e-006
 432, 81.73671,3.260029e-003,0.29998,60.00000,7.994319e-006
 434, 82.14865,3.276178e-003,0.29999,60.00000,7.994629e-006
 436, 82.55902,3.292045e-003,0.30000,60.00000,7.994372e-006
 438, 82.96884,3.307876e-003,0.29995,60.00000,7.993968e-006
 440, 83.38016,3.324254e-003,0.29998,60.00000,7.994976e-006
 442, 83.79288,3.340207e-003,0.29998,60.00000,7.994863e-006
 444, 84.20433,3.356395e-003,0.30000,60.00000,7.995307e-006
 446, 84.61503,3.372310e-003,0.29998,60.00000,7.995160e-006
 448, 85.02677,3.387850e-003,0.30002,60.00000,7.994017e-006
 450, 85.44073,3.403315e-003,0.29999,60.00000,7.992789e-006
 452, 85.85323,3.418394e-003,0.30000,60.00000,7.990759e-006
 454, 86.26341,3.433325e-003,0.29998,60.00000,7.988254e-006
 456, 86.67009,3.448075e-003,0.30000,60.00000,7.985397e-006
 458, 87.07316,3.462677e-003,0.30000,60.00000,7.982235e-006
 460, 87.47450,3.477694e-003,0.30000,60.00000,7.979918e-006
 462, 87.87712,3.492994e-003,0.29999,60.00000,7.978407e-006
 464, 88.28289,3.508920e-003,0.30000,60.00000,7.978372e-006
 466, 88.69072,3.525309e-003,0.30001,60.00000,7.979359e-006
 468, 89.09866,3.541406e-003,0.30001,60.00000,7.979692e-006
 470, 89.50480,3.557297e-003,0.29999,60.00000,7.979535e-006
 472, 89.90978,3.573427e-003,0.29997,60.00000,7.979901e-006
 474, 90.31376,3.589363e-003,0.29999,60.00000,7.979795e-006
 476, 90.71783,3.605136e-003,0.30003,60.00000,7.979422e-006
 478, 91.12277,3.620484e-003,0.29999,60.00000,7.978052e-006
 480, 91.52893,3.635956e-003,0.30002,60.00000,7.977026e-006
 482, 91.93573,3.651497e-003,0.29999,60.00000,7.976007e-006
 484, 92.34252,3.666193e-003,0.30000,60.00000,7.973291e-006
 486, 92.74861,3.681078e-003,0.30002,60.00000,7.970893e-006
 488, 93.15289,3.695823e-003,0.30001,60.00000,7.968346e-006
 490, 93.55645,3.711146e-003,0.29996,60.00000,7.967049e-006
 492, 93.96087,3.726289e-003,0.30001,60.00000,7.965324e-006
 494, 94.36833,3.742199e-003,0.30000,60.00000,7.965269e-006
 496, 94.77896,3.757173e-003,0.30001,60.00000,7.963260e-006
 498, 95.19119,3.771953e-003,0.30001,60.00000,7.960762e-006
 500, 95.60381,3.786790e-003,0.30003,60.00000,7.958496e-006
 502, 96.01356,3.802044e-003,0.29999,60.00000,7.957136e-006
 504, 96.41978,3.817454e-003,0.29999,60.00000,7.956045e-006
 506, 96.82546,3.833045e-003,0.30002,60.00000,7.955313e-006
 508, 97.23253,3.849188e-003,0.29998,60.00000,7.955756e-006
 510, 97.64196,3.865495e-003,0.30000,60.00000,7.956621e-006
 512, 98.05407,3.882185e-003,0.29999,60.00000,7.958133e-006
 514, 98.46782,3.898323e-003,0.29999,60.00000,7.958721e-006
 516, 98.88084,3.914513e-003,0.29999,60.00000,7.959222e-006
 518, 99.29238,3.930692e-003,0.29998,60.00000,7.959801e-006
 520, 99.70222,3.946912e-003,0.30001,60.00000,7.960445e-006
 522,100.111,3.962595e-003,0.29996,60.00000,7.959959e-006
 524,100.52,3.978043e-003,0.29998,60.00000,7.958942e-006
 526,100.932,3.992886e-003,0.30001,60.00000,7.956843e-006
 528,101.344,4.007488e-003,0.30000,60.00000,7.954201e-006
 530,101.754,4.022114e-003,0.30000,60.00000,7.951674e-006
 532,102.16,4.037166e-003,0.29998,60.00000,7.949970e-006
 534,102.563,4.052051e-003,0.30002,60.00000,7.947899e-006
 536,102.963,4.067287e-003,0.30000,60.00000,7.946586e-006
 538,103.364,4.082924e-003,0.29999,60.00000,7.946036e-006
 540,103.766,4.098281e-003,0.30005,60.00000,7.945020e-006
 542,104.17,4.114090e-003,0.30000,60.00000,7.944863e-006
 544,104.577,4.129869e-003,0.30000,60.00000,7.944675e-006
 546,104.986,4.145209e-003,0.30007,60.00000,7.943578e-006
 548,105.396,4.160327e-003,0.29998,60.00000,7.942069e-006
 550,105.803,4.175299e-003,0.30000,60.00000,7.940377e-006
 552,106.208,4.190119e-003,0.30001,60.00000,7.938405e-006
 554,106.609,4.205097e-003,0.29998,60.00000,7.936601e-006
 556,107.009,4.220444e-003,0.30003,60.00000,7.935642e-006
 558,107.409,4.236110e-003,0.30001,60.00000,7.935234e-006
 560,107.813,4.252102e-003,0.30004,60.00000,7.935408e-006
 562,108.221,4.268019e-003,0.30004,60.00000,7.935518e-006
 564,108.63,4.283686e-003,0.30000,60.00000,7.935148e-006
 566,109.037,4.298438e-003,0.29999,60.00000,7.933072e-006
 568,109.443,4.313024e-003,0.30002,60.00000,7.930698e-006
 570,109.85,4.327915e-003,0.29998,60.00000,7.928852e-006
 572,110.26,4.343331e-003,0.30000,60.00000,7.928098e-006
 574,110.67,4.358923e-003,0.30000,60.00000,7.927624e-006
 576,111.078,4.374893e-003,0.30000,60.00000,7.927856e-006
 578,111.482,4.390578e-003,0.30001,60.00000,7.927524e-006
 580,111.887,4.406276e-003,0.29999,60.00000,7.927206e-006
 582,112.295,4.422232e-003,0.29998,60.00000,7.927398e-006
 584,112.708,4.437990e-003,0.29995,60.00000,7.927251e-006
 586,113.122,4.453581e-003,0.30001,60.00000,7.926751e-006
 588,113.533,4.469357e-003,0.30000,60.00000,7.926628e-006
 590,113.94,4.485302e-003,0.29999,60.00000,7.926787e-006
 592,114.347,4.501284e-003,0.29996,60.00000,7.926961e-006
 594,114.753,4.516734e-003,0.30003,60.00000,7.926266e-006
 596,115.158,4.532146e-003,0.29994,60.00000,7.925472e-006
 598,115.563,4.547893e-003,0.29997,60.00000,7.925273e-006
 600,115.968,4.563417e-003,0.30001,60.00000,7.924831e-006
 602,116.371,4.579329e-003,0.30001,60.00000,7.924879e-006
 604,116.772,4.594996e-003,0.30000,60.00000,7.924625e-006
 606,117.17,4.610950e-003,0.29999,60.00000,7.924706e-006
 608,117.57,4.626714e-003,0.30001,60.00000,7.924534e-006
 610,117.972,4.642308e-003,0.30001,60.00000,7.924121e-006
 612,118.376,4.658119e-003,0.29999,60.00000,7.924074e-006
 614,118.782,4.673592e-003,0.30002,60.00000,7.923395e-006
 616,119.19,4.689197e-003,0.29999,60.00000,7.923050e-006
 618,119.596,4.704359e-003,0.30002,60.00000,7.921905e-006
 620,119.997,4.720127e-003,0.30000,60.00000,7.921671e-006
 622,120.4,4.736211e-003,0.29997,60.00000,7.922138e-006
 624,120.806,4.752564e-003,0.29999,60.00000,7.922998e-006
 626,121.217,4.768813e-003,0.30000,60.00000,7.923692e-006
 628,121.627,4.785073e-003,0.29998,60.00000,7.924308e-006
 630,122.035,4.800469e-003,0.30002,60.00000,7.923588e-006
 632,122.44,4.816707e-003,0.29999,60.00000,7.924262e-006
 634,122.844,4.832815e-003,0.30000,60.00000,7.924682e-006
 636,123.25,4.849588e-003,0.30001,60.00000,7.926183e-006
 638,123.656,4.865830e-003,0.30000,60.00000,7.926829e-006
 640,124.061,4.882551e-003,0.29996,60.00000,7.928237e-006
 642,124.465,4.899360e-003,0.30005,60.00000,7.929796e-006
 644,124.869,4.916807e-003,0.29998,60.00000,7.932368e-006
 646,125.276,4.934539e-003,0.29997,60.00000,7.935419e-006
 648,125.682,4.951826e-003,0.30001,60.00000,7.937714e-006
 650,126.09,4.968491e-003,0.30000,60.00000,7.939011e-006
 652,126.499,4.984276e-003,0.30000,60.00000,7.938859e-006
 654,126.908,5.000139e-003,0.29999,60.00000,7.938859e-006
 656,127.317,5.017315e-003,0.29999,60.00000,7.940888e-006
 658,127.731,5.035200e-003,0.30002,60.00000,7.944082e-006
 660,128.15,5.053691e-003,0.30001,60.00000,7.948267e-006
 662,128.568,5.071251e-003,0.30002,60.00000,7.950884e-006
 664,128.984,5.088690e-003,0.29998,60.00000,7.953267e-006
 666,129.4,5.105889e-003,0.29998,60.00000,7.955291e-006
 668,129.815,5.123095e-003,0.30000,60.00000,7.957302e-006
 670,130.226,5.139854e-003,0.30002,60.00000,7.958686e-006
 672,130.633,5.155952e-003,0.30001,60.00000,7.958942e-006
 674,131.04,5.172747e-003,0.30000,60.00000,7.960299e-006
 676,131.451,5.190284e-003,0.29998,60.00000,7.962779e-006
 678,131.865,5.207631e-003,0.30001,60.00000,7.965013e-006
 680,132.276,5.224874e-003,0.29998,60.00000,7.967042e-006
 682,132.682,5.240837e-003,0.30000,60.00000,7.967055e-006
 684,133.085,5.256908e-003,0.30000,60.00000,7.967295e-006
 686,133.488,5.273254e-003,0.30004,60.00000,7.967897e-006
 688,133.892,5.289943e-003,0.30001,60.00000,7.969066e-006
 690,134.297,5.306834e-003,0.30000,60.00000,7.970445e-006
 692,134.691,5.323203e-003,0.29998,60.00000,7.971198e-006
 694,135.068,5.339051e-003,0.29999,60.00000,7.970982e-006
 696,135.443,5.355898e-003,0.30003,60.00000,7.972344e-006
 698,135.832,5.373647e-003,0.29999,60.00000,7.974958e-006
 700,136.239,5.391428e-003,0.30001,60.00000,7.977722e-006
 702,136.662,5.408726e-003,0.30002,60.00000,7.979807e-006
 704,137.088,5.425208e-003,0.30003,60.00000,7.980598e-006
 706,137.504,5.441075e-003,0.30003,60.00000,7.980466e-006
 708,137.907,5.457010e-003,0.29998,60.00000,7.980441e-006
 710,138.3,5.472584e-003,0.30001,60.00000,7.979827e-006
 712,138.69,5.488673e-003,0.30002,60.00000,7.980007e-006
 714,139.078,5.505447e-003,0.30001,60.00000,7.981164e-006
 716,139.474,5.523209e-003,0.30000,60.00000,7.983868e-006
 718,139.876,5.540896e-003,0.30001,60.00000,7.986310e-006
 720,140.285,5.558206e-003,0.30001,60.00000,7.988239e-006
 722,140.697,5.574815e-003,0.30002,60.00000,7.989192e-006
 724,141.106,5.591264e-003,0.30002,60.00000,7.989858e-006
 726,141.51,5.606697e-003,0.30004,60.00000,7.989067e-006
 728,141.909,5.622238e-003,0.30002,60.00000,7.988452e-006
 730,142.305,5.638590e-003,0.30004,60.00000,7.988935e-006
 732,142.702,5.654987e-003,0.30000,60.00000,7.989530e-006
 734,143.099,5.671764e-003,0.29995,60.00000,7.990728e-006
 736,143.495,5.688343e-003,0.30001,60.00000,7.991570e-006
 738,143.89,5.705202e-003,0.30000,60.00000,7.992802e-006
 740,144.285,5.721999e-003,0.29999,60.00000,7.993874e-006
 742,144.68,5.738580e-003,0.29999,60.00000,7.994755e-006
 744,145.073,5.755845e-003,0.29999,60.00000,7.996534e-006
 746,145.469,5.773102e-003,0.30001,60.00000,7.998334e-006
 748,145.866,5.790191e-003,0.30000,60.00000,7.999846e-006
 750,146.264,5.807237e-003,0.29999,60.00000,8.001298e-006
 752,146.66,5.824419e-003,0.29997,60.00000,8.002906e-006
 754,147.056,5.841723e-003,0.30002,60.00000,8.004733e-006
 756,147.45,5.859008e-003,0.29998,60.00000,8.006447e-006
 758,147.843,5.876377e-003,0.30000,60.00000,8.008354e-006
 760,148.237,5.893922e-003,0.29999,60.00000,8.010432e-006
 762,148.631,5.911947e-003,0.29998,60.00000,8.013179e-006
 764,149.027,5.929902e-003,0.29999,60.00000,8.015755e-006
 766,149.424,5.948246e-003,0.29999,60.00000,8.018936e-006
 768,149.822,5.966576e-003,0.30002,60.00000,8.022044e-006
 770,150.217,5.985318e-003,0.30000,60.00000,8.025695e-006
 772,150.612,6.004089e-003,0.29997,60.00000,8.029379e-006
 774,151.012,6.023179e-003,0.30000,60.00000,8.033442e-006
 776,151.413,6.041789e-003,0.30000,60.00000,8.036876e-006
 778,151.812,6.060669e-003,0.30001,60.00000,8.040584e-006
 780,152.209,6.079705e-003,0.30001,60.00000,8.044502e-006
 782,152.605,6.099647e-003,0.29999,60.00000,8.049658e-006
 784,153.003,6.119847e-003,0.30003,60.00000,8.055061e-006
 786,153.401,6.140139e-003,0.30001,60.00000,8.060629e-006
 788,153.8,6.160311e-003,0.29999,60.00000,8.065942e-006
 790,154.199,6.180453e-003,0.29999,60.00000,8.071230e-006
 792,154.598,6.200283e-003,0.30002,60.00000,8.076079e-006
 794,154.999,6.219667e-003,0.29999,60.00000,8.080250e-006
 796,155.404,6.239793e-003,0.30000,60.00000,8.085521e-006
 798,155.801,6.259211e-003,0.30000,60.00000,8.089741e-006
 800,156.194,6.278890e-003,0.30000,60.00000,8.094275e-006
 802,156.586,6.298866e-003,0.30003,60.00000,8.099121e-006
 804,156.979,6.318787e-003,0.30002,60.00000,8.103955e-006
 806,157.374,6.339174e-003,0.29999,60.00000,8.109349e-006
 808,157.77,6.359142e-003,0.30000,60.00000,8.114124e-006
 810,158.164,6.377965e-003,0.30003,60.00000,8.117506e-006
 812,158.557,6.397066e-003,0.30002,60.00000,8.121177e-006
 814,158.95,6.416734e-003,0.29998,60.00000,8.125496e-006
 816,159.35,6.436780e-003,0.29999,60.00000,8.130332e-006
 818,159.75,6.456531e-003,0.30001,60.00000,8.134772e-006
 820,160.146,6.476553e-003,0.30001,60.00000,8.139549e-006
 822,160.54,6.496479e-003,0.29999,60.00000,8.144140e-006
 824,160.936,6.516785e-003,0.30003,60.00000,8.149232e-006
 826,161.334,6.537296e-003,0.30001,60.00000,8.154523e-006
 828,161.736,6.558153e-003,0.30001,60.00000,8.160217e-006
 830,162.135,6.578271e-003,0.29999,60.00000,8.164957e-006
 832,162.527,6.598624e-003,0.29999,60.00000,8.169944e-006
 834,162.917,6.619138e-003,0.30001,60.00000,8.175167e-006
 836,163.308,6.639771e-003,0.30002,60.00000,8.180431e-006
 838,163.703,6.660957e-003,0.29999,60.00000,8.186443e-006
 840,164.103,6.681645e-003,0.30001,60.00000,8.191764e-006
 842,164.504,6.702551e-003,0.30002,60.00000,8.197359e-006
 844,164.905,6.723141e-003,0.30002,60.00000,8.202430e-006
 846,165.306,6.742539e-003,0.30001,60.00000,8.206136e-006
 848,165.708,6.763287e-003,0.30000,60.00000,8.211481e-006
 850,166.11,6.786407e-003,0.30000,60.00000,8.219610e-006
 852,166.511,6.809874e-003,0.30001,60.00000,8.228188e-006
 854,166.912,6.832279e-003,0.30000,60.00000,8.235432e-006
 856,167.315,6.852509e-003,0.30001,60.00000,8.239970e-006
 858,167.722,6.871857e-003,0.30002,60.00000,8.243430e-006
 860,168.129,6.890559e-003,0.30000,60.00000,8.246051e-006
 862,168.531,6.908868e-003,0.29999,60.00000,8.248264e-006
 864,168.926,6.928167e-003,0.30002,60.00000,8.251618e-006
 866,169.316,6.948313e-003,0.29998,60.00000,8.255950e-006
 868,169.709,6.968882e-003,0.30001,60.00000,8.260814e-006
 870,170.101,6.989585e-003,0.30001,60.00000,8.265805e-006
 872,170.493,7.009974e-003,0.29999,60.00000,8.270366e-006
 874,170.886,7.030256e-003,0.30001,60.00000,8.274805e-006
 876,171.279,7.051126e-003,0.29998,60.00000,8.279910e-006
 878,171.674,7.072238e-003,0.29999,60.00000,8.285276e-006
 880,172.072,7.094527e-003,0.30003,60.00000,8.292000e-006
 882,172.471,7.116188e-003,0.30000,60.00000,8.297979e-006
 884,172.87,7.137722e-003,0.30001,60.00000,8.303761e-006
 886,173.266,7.158861e-003,0.30001,60.00000,8.309072e-006
 888,173.663,7.179612e-003,0.30002,60.00000,8.313874e-006
 890,174.06,7.200642e-003,0.29999,60.00000,8.318960e-006
 892,174.456,7.221179e-003,0.29999,60.00000,8.323523e-006
 894,174.85,7.241646e-003,0.30000,60.00000,8.327928e-006
 896,175.242,7.262308e-003,0.30000,60.00000,8.332513e-006
 898,175.637,7.283211e-003,0.30001,60.00000,8.337444e-006
 900,176.033,7.303981e-003,0.30001,60.00000,8.342124e-006
 902,176.433,7.324903e-003,0.30002,60.00000,8.346979e-006
 904,176.835,7.345415e-003,0.30003,60.00000,8.351377e-006
 906,177.239,7.366382e-003,0.30000,60.00000,8.356228e-006
 908,177.643,7.386987e-003,0.30000,60.00000,8.360690e-006
 910,178.042,7.407445e-003,0.30002,60.00000,8.364920e-006
 912,178.441,7.428569e-003,0.29998,60.00000,8.369874e-006
 914,178.845,7.449193e-003,0.30000,60.00000,8.374324e-006
 916,179.251,7.470164e-003,0.30002,60.00000,8.379047e-006
 918,179.659,7.490721e-003,0.29999,60.00000,8.383337e-006
 920,180.064,7.510668e-003,0.30001,60.00000,8.386911e-006
 922,180.465,7.531035e-003,0.30000,60.00000,8.390923e-006
 924,180.864,7.551733e-003,0.29999,60.00000,8.395297e-006
 926,181.262,7.572145e-003,0.30005,60.00000,8.399394e-006
 928,181.657,7.592437e-003,0.30001,60.00000,8.403264e-006
 930,182.05,7.612821e-003,0.30000,60.00000,8.407259e-006
 932,182.443,7.632959e-003,0.30001,60.00000,8.410940e-006
 934,182.836,7.653828e-003,0.30001,60.00000,8.415355e-006
 936,183.231,7.674637e-003,0.30001,60.00000,8.419783e-006
 938,183.625,7.695512e-003,0.29999,60.00000,8.424184e-006
 940,184.018,7.716340e-003,0.30000,60.00000,8.428580e-006
 942,184.411,7.736897e-003,0.29999,60.00000,8.432634e-006
 944,184.803,7.757718e-003,0.30000,60.00000,8.436973e-006
 946,185.2,7.779034e-003,0.30000,60.00000,8.441793e-006
 948,185.603,7.799846e-003,0.30002,60.00000,8.446108e-006
 950,186.006,7.820344e-003,0.29997,60.00000,8.450049e-006
 952,186.407,7.840388e-003,0.29999,60.00000,8.453471e-006
 954,186.804,7.860191e-003,0.30001,60.00000,8.456589e-006
 956,187.195,7.880590e-003,0.30002,60.00000,8.460334e-006
 958,187.583,7.901040e-003,0.30000,60.00000,8.464115e-006
 960,187.972,7.922052e-003,0.30001,60.00000,8.468532e-006
 962,188.363,7.943383e-003,0.30000,60.00000,8.473235e-006
 964,188.758,7.965141e-003,0.29997,60.00000,8.478376e-006
 966,189.158,7.986506e-003,0.30000,60.00000,8.483120e-006
 968,189.56,8.007313e-003,0.30002,60.00000,8.487197e-006
 970,189.962,8.027845e-003,0.29999,60.00000,8.490980e-006
 972,190.363,8.048624e-003,0.30002,60.00000,8.495006e-006
 974,190.765,8.069321e-003,0.30001,60.00000,8.498962e-006
 976,191.169,8.089603e-003,0.29996,60.00000,8.502469e-006
 978,191.567,8.109593e-003,0.30001,60.00000,8.505572e-006
 980,191.971,8.130090e-003,0.30001,60.00000,8.509258e-006
 982,192.379,8.149761e-003,0.30001,60.00000,8.511994e-006
 984,192.787,8.169109e-003,0.30003,60.00000,8.514482e-006
 986,193.19,8.188049e-003,0.30002,60.00000,8.516429e-006
 988,193.586,8.207029e-003,0.29999,60.00000,8.518507e-006
 990,193.975,8.226416e-003,0.29999,60.00000,8.520937e-006
 992,194.362,8.246630e-003,0.29997,60.00000,8.524264e-006
 994,194.755,8.266678e-003,0.30000,60.00000,8.527372e-006
 996,195.149,8.286381e-003,0.30001,60.00000,8.530071e-006
 998,195.543,8.305903e-003,0.29999,60.00000,8.532606e-006
1000,195.939,8.325194e-003,0.30000,60.00000,8.534908e-006
1002,196.335,8.344542e-003,0.30000,60.00000,8.537268e-006
1004,196.731,8.364061e-003,0.30003,60.00000,8.539781e-006
1006,197.13,8.383033e-003,0.29999,60.00000,8.541740e-006
1008,197.527,8.401481e-003,0.30003,60.00000,8.543095e-006
1010,197.922,8.420523e-003,0.30001,60.00000,8.545123e-006
1012,198.313,8.439522e-003,0.30002,60.00000,8.547066e-006
1014,198.705,8.458957e-003,0.30000,60.00000,8.549419e-006
1016,199.095,8.477533e-003,0.30002,60.00000,8.550953e-006
1018,199.487,8.495971e-003,0.29999,60.00000,8.552295e-006
1020,199.884,8.515114e-003,0.30000,60.00000,8.554302e-006
1022,200.286,8.534409e-003,0.29998,60.00000,8.556550e-006
1024,200.692,8.553115e-003,0.30003,60.00000,8.558155e-006
1026,201.097,8.571883e-003,0.30004,60.00000,8.559830e-006
1028,201.506,8.590702e-003,0.30000,60.00000,8.561481e-006
1030,201.913,8.609529e-003,0.30002,60.00000,8.563207e-006
1032,202.314,8.628737e-003,0.29999,60.00000,8.565274e-006
1034,202.722,8.648366e-003,0.30001,60.00000,8.567789e-006
1036,203.125,8.667271e-003,0.30000,60.00000,8.569551e-006
1038,203.522,8.686054e-003,0.30000,60.00000,8.571125e-006
1040,203.921,8.705542e-003,0.30000,60.00000,8.573444e-006
1042,204.325,8.724337e-003,0.30001,60.00000,8.575108e-006
1044,204.729,8.742674e-003,0.29999,60.00000,8.576288e-006
1046,205.131,8.760677e-003,0.29999,60.00000,8.577154e-006
1048,205.527,8.778886e-003,0.29999,60.00000,8.578146e-006
1050,205.919,8.797604e-003,0.30000,60.00000,8.579700e-006
1052,206.31,8.817544e-003,0.29998,60.00000,8.582424e-006
1054,206.703,8.837339e-003,0.30000,60.00000,8.584994e-006
1056,207.098,8.856814e-003,0.30000,60.00000,8.587261e-006
1058,207.493,8.876156e-003,0.29998,60.00000,8.589345e-006
1060,207.89,8.895639e-003,0.30002,60.00000,8.591576e-006
1062,208.283,8.914748e-003,0.30000,60.00000,8.593412e-006
1064,208.68,8.934068e-003,0.30003,60.00000,8.595515e-006
1066,209.08,8.952286e-003,0.30000,60.00000,8.596509e-006
1068,209.478,8.970653e-003,0.30000,60.00000,8.597654e-006
1070,209.873,8.989514e-003,0.30000,60.00000,8.599244e-006
1072,210.264,9.008521e-003,0.30000,60.00000,8.600948e-006
1074,210.658,9.027529e-003,0.30002,60.00000,8.602666e-006
1076,211.058,9.046479e-003,0.29999,60.00000,8.604348e-006
1078,211.461,9.064739e-003,0.30000,60.00000,8.605396e-006
1080,211.861,9.083256e-003,0.30002,60.00000,8.606619e-006
1082,212.265,9.101638e-003,0.29999,60.00000,8.607726e-006
1084,212.666,9.120262e-003,0.29997,60.00000,8.609032e-006
1086,213.067,9.138910e-003,0.30000,60.00000,8.610412e-006
1088,213.469,9.157359e-003,0.30003,60.00000,8.611575e-006
1090,213.872,9.175639e-003,0.29999,60.00000,8.612569e-006
1092,214.276,9.194273e-003,0.30001,60.00000,8.613925e-006
1094,214.677,9.212994e-003,0.29998,60.00000,8.615288e-006
1096,215.079,9.231685e-003,0.30002,60.00000,8.616660e-006
1098,215.482,9.250035e-003,0.29999,60.00000,8.617728e-006
1100,215.886,9.267858e-003,0.30000,60.00000,8.618272e-006
1102,216.288,9.285549e-003,0.29999,60.00000,8.618703e-006
1104,216.686,9.303445e-003,0.30004,60.00000,8.619343e-006
1106,217.083,9.321835e-003,0.30003,60.00000,8.620390e-006
1108,217.481,9.340092e-003,0.30000,60.00000,8.621289e-006
1110,217.879,9.357956e-003,0.30002,60.00000,8.621889e-006
1112,218.273,9.375612e-003,0.30001,60.00000,8.622267e-006
1114,218.666,9.393918e-003,0.30001,60.00000,8.623240e-006
1116,219.064,9.412543e-003,0.30003,60.00000,8.624498e-006
1118,219.464,9.430868e-003,0.30000,60.00000,8.625505e-006
1120,219.861,9.448764e-003,0.30000,60.00000,8.626119e-006
1122,220.253,9.466756e-003,0.30002,60.00000,8.626790e-006
1124,220.645,9.485294e-003,0.29996,60.00000,8.627964e-006
1126,221.036,9.503595e-003,0.29999,60.00000,8.628940e-006
1128,221.426,9.521629e-003,0.29999,60.00000,8.629574e-006
1130,221.82,9.539588e-003,0.30001,60.00000,8.630254e-006
1132,222.213,9.557909e-003,0.30000,60.00000,8.631187e-006
1134,222.616,9.577052e-003,0.30001,60.00000,8.632939e-006
1136,223.02,9.595295e-003,0.29999,60.00000,8.633798e-006
1138,223.42,9.613963e-003,0.30003,60.00000,8.635041e-006
1140,223.821,9.632612e-003,0.30002,60.00000,8.636315e-006
1142,224.221,9.651296e-003,0.29999,60.00000,8.637548e-006
1144,224.623,9.669590e-003,0.30001,60.00000,8.638498e-006
1146,225.02,9.688053e-003,0.30002,60.00000,8.639574e-006
1148,225.421,9.706717e-003,0.30002,60.00000,8.640797e-006
1150,225.822,9.725860e-003,0.29998,60.00000,8.642449e-006
1152,226.225,9.745241e-003,0.30000,60.00000,8.644345e-006
1154,226.632,9.764428e-003,0.29997,60.00000,8.645996e-006
1156,227.036,9.783280e-003,0.30001,60.00000,8.647387e-006
1158,227.438,9.801349e-003,0.30000,60.00000,8.648088e-006
1160,227.837,9.819817e-003,0.30001,60.00000,8.649133e-006
1162,228.234,9.838713e-003,0.30002,60.00000,8.650548e-006
1164,228.63,9.857203e-003,0.29998,60.00000,8.651549e-006
1166,229.028,9.876124e-003,0.30001,60.00000,8.653014e-006
1168,229.424,9.894593e-003,0.30000,60.00000,8.654016e-006
1170,229.818,9.912888e-003,0.30000,60.00000,8.654899e-006
1172,230.212,9.931722e-003,0.29999,60.00000,8.656229e-006
1174,230.612,9.950134e-003,0.30000,60.00000,8.657183e-006
1176,231.015,9.968159e-003,0.29999,60.00000,8.657828e-006
1178,231.411,9.985683e-003,0.30000,60.00000,8.657982e-006
1180,231.804,1.000417e-002,0.29999,60.00000,8.658965e-006
1182,232.201,1.002224e-002,0.30002,60.00000,8.659677e-006
1184,232.593,1.004105e-002,0.30002,60.00000,8.660947e-006
1186,232.979,1.006176e-002,0.29998,60.00000,8.663868e-006
1188,233.368,1.008181e-002,0.29998,60.00000,8.666232e-006
1190,233.772,1.010133e-002,0.30002,60.00000,8.668099e-006
1192,234.184,1.011967e-002,0.30003,60.00000,8.669007e-006
1194,234.59,1.013788e-002,0.30000,60.00000,8.669757e-006
1196,234.987,1.015622e-002,0.30000,60.00000,8.670563e-006
1198,235.383,1.017502e-002,0.30004,60.00000,8.671843e-006
1200,235.785,1.019413e-002,0.30000,60.00000,8.673358e-006
1202,236.187,1.021242e-002,0.30001,60.00000,8.674181e-006
1204,236.574,1.023139e-002,0.29999,60.00000,8.675537e-006
1206,236.959,1.025148e-002,0.29998,60.00000,8.677832e-006
1208,237.357,1.027131e-002,0.29998,60.00000,8.679951e-006
1210,237.769,1.029047e-002,0.30001,60.00000,8.681466e-006
1212,238.194,1.030907e-002,0.30000,60.00000,8.682527e-006
1214,238.613,1.032640e-002,0.30001,60.00000,8.682562e-006
1216,239.012,1.034461e-002,0.30001,60.00000,8.683260e-006
1218,239.389,1.036374e-002,0.30001,60.00000,8.684684e-006
1220,239.761,1.038517e-002,0.30000,60.00000,8.688068e-006
1222,240.159,1.040641e-002,0.30001,60.00000,8.691355e-006
1224,240.579,1.042548e-002,0.29999,60.00000,8.692772e-006
1226,240.991,1.044469e-002,0.30001,60.00000,8.694302e-006
1228,241.377,1.046353e-002,0.29997,60.00000,8.695628e-006
1230,241.732,1.048427e-002,0.29997,60.00000,8.698319e-006
1232,242.084,1.050657e-002,0.30000,60.00000,8.702309e-006
1234,242.465,1.052846e-002,0.30002,60.00000,8.706021e-006
1236,242.906,1.054749e-002,0.30000,60.00000,8.707392e-006
1238,243.368,1.056251e-002,0.30000,60.00000,8.705528e-006
1240,243.773,1.057866e-002,0.30002,60.00000,8.704542e-006
1242,244.116,1.059826e-002,0.29999,60.00000,8.706269e-006
1244,244.439,1.062000e-002,0.29999,60.00000,8.709747e-006
1246,244.777,1.064337e-002,0.30001,60.00000,8.714569e-006
1248,245.153,1.066647e-002,0.30001,60.00000,8.719236e-006
1250,245.597,1.068731e-002,0.30000,60.00000,8.722039e-006
1252,246.129,1.070365e-002,0.29999,60.00000,8.721240e-006
1254,246.638,1.071757e-002,0.29996,60.00000,8.718460e-006
1256,247.054,1.073422e-002,0.30005,60.00000,8.717863e-006
1258,247.395,1.075466e-002,0.30002,60.00000,8.720274e-006
1260,247.701,1.077772e-002,0.30002,60.00000,8.724702e-006
1262,248.01,1.080345e-002,0.30001,60.00000,8.731357e-006
1264,248.343,1.082887e-002,0.29998,60.00000,8.737784e-006
1266,248.73,1.085214e-002,0.30001,60.00000,8.742463e-006
1268,249.214,1.087184e-002,0.30001,60.00000,8.744285e-006
1270,249.812,1.088406e-002,0.29999,60.00000,8.740194e-006
1272,250.313,1.089589e-002,0.30000,60.00000,8.735729e-006
1274,250.689,1.091323e-002,0.30000,60.00000,8.735664e-006
1276,251.002,1.093513e-002,0.30000,60.00000,8.739033e-006
1278,251.302,1.095994e-002,0.30000,60.00000,8.744847e-006
1280,251.617,1.098586e-002,0.30000,60.00000,8.751518e-006
1282,251.97,1.101110e-002,0.30000,60.00000,8.757672e-006
1284,252.406,1.103448e-002,0.29998,60.00000,8.762356e-006
1286,252.98,1.105078e-002,0.30003,60.00000,8.761514e-006
1288,253.518,1.106327e-002,0.30000,60.00000,8.757684e-006
1290,253.893,1.107983e-002,0.30001,60.00000,8.757002e-006
1292,254.186,1.110250e-002,0.30004,60.00000,8.760915e-006
1294,254.461,1.112804e-002,0.30002,60.00000,8.767124e-006
1296,254.752,1.115487e-002,0.29999,60.00000,8.774404e-006
1298,255.08,1.118147e-002,0.29999,60.00000,8.781520e-006
1300,255.473,1.120496e-002,0.29999,60.00000,8.786200e-006
1302,255.977,1.122447e-002,0.30004,60.00000,8.787783e-006
1304,256.599,1.123619e-002,0.30001,60.00000,8.783340e-006
1306,257.073,1.124941e-002,0.30000,60.00000,8.780163e-006
1308,257.397,1.126895e-002,0.29999,60.00000,8.781552e-006
1310,257.678,1.129471e-002,0.29998,60.00000,8.787762e-006
1312,257.961,1.132258e-002,0.30001,60.00000,8.795768e-006
1314,258.27,1.134937e-002,0.29998,60.00000,8.802869e-006
1316,258.624,1.137249e-002,0.30000,60.00000,8.807198e-006
1318,259.051,1.139301e-002,0.30002,60.00000,8.809462e-006
1320,259.59,1.141109e-002,0.30000,60.00000,8.809845e-006
1322,260.215,1.142463e-002,0.30000,60.00000,8.806829e-006
1324,260.655,1.144025e-002,0.30001,60.00000,8.805517e-006
1326,260.964,1.146320e-002,0.30001,60.00000,8.809405e-006
1328,261.247,1.148979e-002,0.29998,60.00000,8.816161e-006
1330,261.543,1.151670e-002,0.29998,60.00000,8.823253e-006
1332,261.874,1.154310e-002,0.29999,60.00000,8.829990e-006
1334,262.256,1.156729e-002,0.30002,60.00000,8.835033e-006
1336,262.701,1.158897e-002,0.30001,60.00000,8.838115e-006
1338,263.225,1.160768e-002,0.29998,60.00000,8.838917e-006
1340,263.835,1.162126e-002,0.30001,60.00000,8.835827e-006
1342,264.538,1.163208e-002,0.29998,60.00000,8.830732e-006
1344,264.946,1.163945e-002,0.29999,60.00000,8.823621e-006
1346,265.164,1.166063e-002,0.30001,60.00000,8.825711e-006
1348,265.355,1.168896e-002,0.29999,60.00000,8.833482e-006
1350,265.55,1.171998e-002,0.29999,60.00000,8.843412e-006
1352,265.767,1.175130e-002,0.30000,60.00000,8.853679e-006
1354,266.025,1.178126e-002,0.30000,60.00000,8.862961e-006
1356,266.346,1.180759e-002,0.29998,60.00000,8.869549e-006
1358,266.744,1.182817e-002,0.30003,60.00000,8.871832e-006
1360,267.198,1.184460e-002,0.30000,60.00000,8.870877e-006
1362,267.678,1.185892e-002,0.30002,60.00000,8.868354e-006
1364,268.155,1.187256e-002,0.30000,60.00000,8.865220e-006
1366,268.625,1.188627e-002,0.30001,60.00000,8.862256e-006
1368,269.085,1.190024e-002,0.29999,60.00000,8.859492e-006
1370,269.538,1.191455e-002,0.29994,60.00000,8.856888e-006
1372,269.985,1.192832e-002,0.30002,60.00000,8.853967e-006
1374,270.427,1.194220e-002,0.29998,60.00000,8.851125e-006
1376,270.839,1.195586e-002,0.30001,60.00000,8.848227e-006
1378,271.214,1.197170e-002,0.30002,60.00000,8.846756e-006
1380,271.579,1.198917e-002,0.29998,60.00000,8.846555e-006
1382,271.953,1.200579e-002,0.30001,60.00000,8.845743e-006
1384,272.339,1.202178e-002,0.30000,60.00000,8.844424e-006
1386,272.747,1.203492e-002,0.30001,60.00000,8.841125e-006
1388,273.161,1.204666e-002,0.29999,60.00000,8.836727e-006
1390,273.581,1.205701e-002,0.30001,60.00000,8.831403e-006
1392,274.002,1.206465e-002,0.29998,60.00000,8.824045e-006
1394,274.416,1.207123e-002,0.29998,60.00000,8.815920e-006
1396,274.821,1.207722e-002,0.29998,60.00000,8.807432e-006
1398,275.211,1.208336e-002,0.30000,60.00000,8.799043e-006
1400,275.589,1.209098e-002,0.29996,60.00000,8.791697e-006