File: 李院长 MgO-C C9-骨 1400 @ S1-1.csv
#EXPORTTYPE:       ,DATA ALL
#FILE:             ,李院长 MgO-C C9-骨 C9-基 1400.ngb-dl9
#FORMAT:           ,NETZSCH5
#FTYPE:            ,ANSI
#IDENTITY:         ,C9-骨
#DECIMAL:          ,POINT
#SEPARATOR:        ,COMMA
#MTYPE:            ,DIL
#INSTRUMENT:       ,NETZSCH DIL 402SU
#PROJECT:          ,123
#DATE/TIME:        ,2025/6/4 16:10:34 (UTC+8)
#CORR. FILE:       ,石墨炉 1400度-1.ngb-cl9
#TEMPCAL:          ,TCALZERO.TMX
#LABORATORY:       ,wust
#OPERATOR:         ,
#REMARK:           ,
#SAMPLE:           ,镁碳
#SAMPLE LENGTH /mm:,25.64
#MATERIAL:         ,镁碳
#MEASMODE:         ,Standard Expansion
#M.RANGE /μm:      ,50000
#CORR. CODE:       ,080
#RANGE:            ,25°C/5.0(K/min)/1403°C
#SEGMENT:          ,S1/2
#SEG. 1:           ,25°C/5.0(K/min)/1403°C
#Tref:             ,30.0°C

##Temp./°C,Time/min,dL/Lo,Force/N,Gas Flow(protective)/(ml/min),m. CTE(1)/(1/K)
  50.00000,  4.64564,2.900019e-004,0.29999,60.00000,1.196674e-005
  52.00000,  4.98442,3.053045e-004,0.30002,60.00000,1.156802e-005
  54.00000,  5.30879,3.161147e-004,0.30003,60.00000,1.105151e-005
  56.00000,  5.64792,3.273738e-004,0.29999,60.00000,1.062856e-005
  58.00000,  6.03260,3.395248e-004,0.29994,60.00000,1.030415e-005
  60.00000,  6.49889,3.598513e-004,0.29998,60.00000,1.029928e-005
  62.00000,  7.01386,3.862515e-004,0.30001,60.00000,1.048508e-005
  64.00000,  7.46891,4.096221e-004,0.30003,60.00000,1.055647e-005
  66.00000,  7.85555,4.276242e-004,0.30001,60.00000,1.047079e-005
  68.00000,  8.19788,4.399570e-004,0.30001,60.00000,1.024127e-005
  70.00000,  8.52413,4.496242e-004,0.29998,60.00000,9.968573e-006
  72.00000,  8.86115,4.588552e-004,0.30000,60.00000,9.712097e-006
  74.00000,  9.24096,4.722563e-004,0.29997,60.00000,9.574395e-006
  76.00000,  9.69478,4.922579e-004,0.29999,60.00000,9.595271e-006
  78.00000, 10.18614,5.175689e-004,0.29997,60.00000,9.725110e-006
  80.00000, 10.63044,5.409027e-004,0.30000,60.00000,9.803332e-006
  82.00000, 11.01891,5.580916e-004,0.30000,60.00000,9.757504e-006
  84.00000, 11.36924,5.718906e-004,0.30003,60.00000,9.650063e-006
  86.00000, 11.70419,5.825600e-004,0.29999,60.00000,9.493999e-006
  88.00000, 12.05264,5.946203e-004,0.30000,60.00000,9.374019e-006
  90.00000, 12.44477,6.097797e-004,0.30001,60.00000,9.313907e-006
  92.00000, 12.90325,6.318992e-004,0.29998,60.00000,9.371071e-006
  94.00000, 13.38261,6.565480e-004,0.29998,60.00000,9.465255e-006
  96.00000, 13.82116,6.789938e-004,0.30002,60.00000,9.519363e-006
  98.00000, 14.21210,6.955338e-004,0.30000,60.00000,9.481766e-006
 100, 14.57150,7.091887e-004,0.30000,60.00000,9.405981e-006
 102, 14.91860,7.211204e-004,0.30001,60.00000,9.308950e-006
 104, 15.27729,7.332890e-004,0.30002,60.00000,9.221436e-006
 106, 15.67433,7.513670e-004,0.30003,60.00000,9.216649e-006
 108, 16.12355,7.742182e-004,0.29997,60.00000,9.274278e-006
 110, 16.58786,7.989404e-004,0.30004,60.00000,9.352148e-006
 112, 17.02829,8.219226e-004,0.30000,60.00000,9.403841e-006
 114, 17.43861,8.406029e-004,0.29999,60.00000,9.402820e-006
 116, 17.82614,8.572127e-004,0.29997,60.00000,9.377153e-006
 118, 18.20235,8.732711e-004,0.30000,60.00000,9.346186e-006
 120, 18.57839,8.898352e-004,0.30003,60.00000,9.322001e-006
 122, 18.96369,9.072470e-004,0.29999,60.00000,9.308503e-006
 124, 19.36770,9.280232e-004,0.29998,60.00000,9.331520e-006
 126, 19.79232,9.503289e-004,0.29987,60.00000,9.368923e-006
 128, 20.23220,9.730687e-004,0.30001,60.00000,9.410411e-006
 130, 20.67438,9.968990e-004,0.30002,60.00000,9.461374e-006
 132, 21.11025,1.017043e-003,0.29996,60.00000,9.473077e-006
 134, 21.53341,1.033495e-003,0.29999,60.00000,9.448737e-006
 136, 21.94286,1.050822e-003,0.29999,60.00000,9.433917e-006
 138, 22.34270,1.067395e-003,0.30002,60.00000,9.412750e-006
 140, 22.73694,1.085127e-003,0.30002,60.00000,9.402601e-006
 142, 23.13038,1.103061e-003,0.29998,60.00000,9.394785e-006
 144, 23.52876,1.121957e-003,0.30002,60.00000,9.395911e-006
 146, 23.93480,1.143400e-003,0.30000,60.00000,9.418680e-006
 148, 24.34971,1.165950e-003,0.30000,60.00000,9.449804e-006
 150, 24.77191,1.188614e-003,0.30002,60.00000,9.481577e-006
 152, 25.19686,1.211641e-003,0.30000,60.00000,9.515099e-006
 154, 25.61957,1.233575e-003,0.30002,60.00000,9.538215e-006
 156, 26.03678,1.255119e-003,0.29998,60.00000,9.557915e-006
 158, 26.44616,1.275665e-003,0.29997,60.00000,9.569166e-006
 160, 26.84918,1.295220e-003,0.30000,60.00000,9.572345e-006
 162, 27.24638,1.314500e-003,0.30001,60.00000,9.573521e-006
 164, 27.64100,1.333978e-003,0.30001,60.00000,9.576134e-006
 166, 28.03514,1.353721e-003,0.29999,60.00000,9.579952e-006
 168, 28.43028,1.375720e-003,0.29999,60.00000,9.600695e-006
 170, 28.82815,1.396461e-003,0.29998,60.00000,9.611624e-006
 172, 29.22746,1.418412e-003,0.29998,60.00000,9.631169e-006
 174, 29.62843,1.439774e-003,0.29999,60.00000,9.645511e-006
 176, 30.02883,1.461398e-003,0.30002,60.00000,9.661438e-006
 178, 30.42776,1.482816e-003,0.29997,60.00000,9.675858e-006
 180, 30.82554,1.503389e-003,0.30002,60.00000,9.683869e-006
 182, 31.22320,1.524385e-003,0.30000,60.00000,9.694399e-006
 184, 31.62106,1.545775e-003,0.30006,60.00000,9.707464e-006
 186, 32.02005,1.568207e-003,0.30001,60.00000,9.727032e-006
 188, 32.41916,1.590345e-003,0.30003,60.00000,9.743657e-006
 190, 32.81964,1.612953e-003,0.29997,60.00000,9.763187e-006
 192, 33.21986,1.635887e-003,0.30002,60.00000,9.784505e-006
 194, 33.62067,1.658470e-003,0.30004,60.00000,9.802636e-006
 196, 34.02054,1.680923e-003,0.30001,60.00000,9.819814e-006
 198, 34.41944,1.702771e-003,0.30000,60.00000,9.833236e-006
 200, 34.81877,1.724259e-003,0.30001,60.00000,9.843748e-006
 202, 35.21780,1.745182e-003,0.30000,60.00000,9.850977e-006
 204, 35.61552,1.766797e-003,0.30002,60.00000,9.861679e-006
 206, 36.01288,1.788597e-003,0.30001,60.00000,9.873508e-006
 208, 36.41121,1.810284e-003,0.30000,60.00000,9.884644e-006
 210, 36.81024,1.831613e-003,0.30001,60.00000,9.893358e-006
 212, 37.21204,1.852738e-003,0.30003,60.00000,9.900585e-006
 214, 37.61322,1.873275e-003,0.30000,60.00000,9.904605e-006
 216, 38.01380,1.894320e-003,0.29998,60.00000,9.911087e-006
 218, 38.41453,1.915161e-003,0.30001,60.00000,9.916602e-006
 220, 38.81529,1.936111e-003,0.30001,60.00000,9.922620e-006
 222, 39.21550,1.956218e-003,0.30000,60.00000,9.923821e-006
 224, 39.61543,1.979106e-003,0.29999,60.00000,9.939669e-006
 226, 40.01636,2.000534e-003,0.29998,60.00000,9.947736e-006
 228, 40.41810,2.023015e-003,0.30001,60.00000,9.960289e-006
 230, 40.82084,2.045126e-003,0.30005,60.00000,9.971737e-006
 232, 41.22366,2.066781e-003,0.30003,60.00000,9.979865e-006
 234, 41.62553,2.088795e-003,0.30001,60.00000,9.990173e-006
 236, 42.02660,2.110274e-003,0.29998,60.00000,9.997205e-006
 238, 42.42750,2.132012e-003,0.30000,60.00000,1.000571e-005
 240, 42.82678,2.153272e-003,0.30008,60.00000,1.001149e-005
 242, 43.22612,2.175394e-003,0.30000,60.00000,1.002183e-005
 244, 43.62566,2.197767e-003,0.30008,60.00000,1.003254e-005
 246, 44.02570,2.219812e-003,0.30000,60.00000,1.004140e-005
 248, 44.42737,2.242552e-003,0.29998,60.00000,1.005382e-005
 250, 44.82930,2.264970e-003,0.30003,60.00000,1.006439e-005
 252, 45.23001,2.286453e-003,0.30000,60.00000,1.007023e-005
 254, 45.63004,2.307357e-003,0.29999,60.00000,1.007385e-005
 256, 46.02959,2.328897e-003,0.29999,60.00000,1.008008e-005
 258, 46.42805,2.350259e-003,0.30002,60.00000,1.008534e-005
 260, 46.82443,2.372087e-003,0.29999,60.00000,1.009240e-005
 262, 47.21976,2.394267e-003,0.30003,60.00000,1.010109e-005
 264, 47.61377,2.416430e-003,0.30002,60.00000,1.010924e-005
 266, 48.00808,2.438647e-003,0.30001,60.00000,1.011794e-005
 268, 48.40269,2.460648e-003,0.30002,60.00000,1.012524e-005
 270, 48.79958,2.482729e-003,0.29999,60.00000,1.013299e-005
 272, 49.19737,2.504674e-003,0.30002,60.00000,1.013991e-005
 274, 49.59772,2.526824e-003,0.30003,60.00000,1.014745e-005
 276, 49.99902,2.548198e-003,0.29997,60.00000,1.015213e-005
 278, 50.39972,2.569901e-003,0.29997,60.00000,1.015755e-005
 280, 50.79958,2.591959e-003,0.30000,60.00000,1.016451e-005
 282, 51.19951,2.613747e-003,0.30001,60.00000,1.017028e-005
 284, 51.60002,2.635973e-003,0.30000,60.00000,1.017791e-005
 286, 52.00046,2.657985e-003,0.30000,60.00000,1.018432e-005
 288, 52.40115,2.679596e-003,0.30006,60.00000,1.018905e-005
 290, 52.80394,2.701429e-003,0.30002,60.00000,1.019467e-005
 292, 53.20846,2.723163e-003,0.29999,60.00000,1.019991e-005
 294, 53.61487,2.744085e-003,0.30002,60.00000,1.020183e-005
 296, 54.02189,2.765302e-003,0.30005,60.00000,1.020484e-005
 298, 54.43003,2.787979e-003,0.30000,60.00000,1.021334e-005
 300, 54.83800,2.809598e-003,0.30000,60.00000,1.021763e-005
 302, 55.24447,2.831210e-003,0.30001,60.00000,1.022203e-005
 304, 55.65009,2.852049e-003,0.30001,60.00000,1.022340e-005
 306, 56.05526,2.873083e-003,0.29999,60.00000,1.022556e-005
 308, 56.46040,2.892929e-003,0.30000,60.00000,1.022337e-005
 310, 56.86572,2.912717e-003,0.30001,60.00000,1.022093e-005
 312, 57.26985,2.933381e-003,0.29999,60.00000,1.022163e-005
 314, 57.67373,2.953565e-003,0.29999,60.00000,1.022096e-005
 316, 58.08016,2.974858e-003,0.29978,60.00000,1.022383e-005
 318, 58.48886,2.996544e-003,0.29999,60.00000,1.022802e-005
 320, 58.90046,3.019063e-003,0.30002,60.00000,1.023529e-005
 322, 59.31498,3.041811e-003,0.30006,60.00000,1.024310e-005
 324, 59.73033,3.064691e-003,0.30001,60.00000,1.025118e-005
 326, 60.14243,3.086069e-003,0.30001,60.00000,1.025420e-005
 328, 60.55065,3.107424e-003,0.29999,60.00000,1.025719e-005
 330, 60.95519,3.127927e-003,0.30001,60.00000,1.025708e-005
 332, 61.35909,3.148968e-003,0.30002,60.00000,1.025880e-005
 334, 61.76503,3.169378e-003,0.29999,60.00000,1.025851e-005
 336, 62.17446,3.189141e-003,0.29999,60.00000,1.025593e-005
 338, 62.58590,3.209879e-003,0.30002,60.00000,1.025654e-005
 340, 62.99578,3.230356e-003,0.30002,60.00000,1.025673e-005
 342, 63.40124,3.250908e-003,0.30000,60.00000,1.025671e-005
 344, 63.80178,3.270712e-003,0.30001,60.00000,1.025449e-005
 346, 64.20066,3.291451e-003,0.30001,60.00000,1.025521e-005
 348, 64.60106,3.311671e-003,0.29999,60.00000,1.025420e-005
 350, 65.00567,3.332512e-003,0.30001,60.00000,1.025518e-005
 352, 65.41411,3.353445e-003,0.29997,60.00000,1.025659e-005
 354, 65.82497,3.374098e-003,0.30001,60.00000,1.025703e-005
 356, 66.23533,3.394045e-003,0.30002,60.00000,1.025543e-005
 358, 66.64115,3.413849e-003,0.29999,60.00000,1.025314e-005
 360, 67.04418,3.434017e-003,0.29999,60.00000,1.025220e-005
 362, 67.44771,3.454886e-003,0.30003,60.00000,1.025304e-005
 364, 67.85493,3.476427e-003,0.30003,60.00000,1.025634e-005
 366, 68.26618,3.498071e-003,0.29997,60.00000,1.025967e-005
 368, 68.67916,3.520182e-003,0.30002,60.00000,1.026437e-005
 370, 69.09015,3.541652e-003,0.30000,60.00000,1.026719e-005
 372, 69.49786,3.562871e-003,0.30001,60.00000,1.026913e-005
 374, 69.90542,3.583854e-003,0.29998,60.00000,1.027031e-005
 376, 70.31258,3.604446e-003,0.30000,60.00000,1.027050e-005
 378, 70.72034,3.625529e-003,0.30003,60.00000,1.027218e-005
 380, 71.12915,3.646158e-003,0.29999,60.00000,1.027233e-005
 382, 71.53879,3.666852e-003,0.30000,60.00000,1.027296e-005
 384, 71.94713,3.687444e-003,0.29999,60.00000,1.027281e-005
 386, 72.35616,3.708624e-003,0.29998,60.00000,1.027473e-005
 388, 72.76495,3.729113e-003,0.30001,60.00000,1.027456e-005
 390, 73.17292,3.749852e-003,0.29998,60.00000,1.027502e-005
 392, 73.58057,3.770472e-003,0.29999,60.00000,1.027534e-005
 394, 73.98751,3.791322e-003,0.29999,60.00000,1.027612e-005
 396, 74.39319,3.812678e-003,0.30002,60.00000,1.027834e-005
 398, 74.80184,3.833811e-003,0.29997,60.00000,1.027983e-005
 400, 75.21370,3.854975e-003,0.30000,60.00000,1.028144e-005
 402, 75.62902,3.876374e-003,0.30003,60.00000,1.028377e-005
 404, 76.04634,3.896963e-003,0.30002,60.00000,1.028383e-005
 406, 76.46335,3.918777e-003,0.30000,60.00000,1.028725e-005
 408, 76.87584,3.940432e-003,0.30000,60.00000,1.028997e-005
 410, 77.28445,3.961791e-003,0.30001,60.00000,1.029209e-005
 412, 77.68989,3.983538e-003,0.29998,60.00000,1.029509e-005
 414, 78.09597,4.005050e-003,0.30002,60.00000,1.029737e-005
 416, 78.50571,4.027359e-003,0.30003,60.00000,1.030195e-005
 418, 78.91774,4.048745e-003,0.30001,60.00000,1.030396e-005
 420, 79.32930,4.069626e-003,0.30001,60.00000,1.030462e-005
 422, 79.73679,4.090116e-003,0.29998,60.00000,1.030430e-005
 424, 80.14058,4.110397e-003,0.30000,60.00000,1.030351e-005
 426, 80.54165,4.130626e-003,0.30001,60.00000,1.030257e-005
 428, 80.94260,4.151141e-003,0.30013,60.00000,1.030236e-005
 430, 81.34578,4.172519e-003,0.29999,60.00000,1.030423e-005
 432, 81.75175,4.193919e-003,0.30002,60.00000,1.030616e-005
 434, 82.16064,4.215839e-003,0.30003,60.00000,1.030944e-005
 436, 82.56921,4.237504e-003,0.30001,60.00000,1.031197e-005
 438, 82.97681,4.259005e-003,0.30000,60.00000,1.031411e-005
 440, 83.38331,4.280071e-003,0.30002,60.00000,1.031525e-005
 442, 83.78819,4.301521e-003,0.30002,60.00000,1.031721e-005
 444, 84.19350,4.323179e-003,0.30000,60.00000,1.031970e-005
 446, 84.60101,4.344453e-003,0.29995,60.00000,1.032118e-005
 448, 85.00934,4.366100e-003,0.30004,60.00000,1.032370e-005
 450, 85.41812,4.387068e-003,0.29991,60.00000,1.032442e-005
 452, 85.82796,4.409796e-003,0.29998,60.00000,1.032930e-005
 454, 86.23808,4.431501e-003,0.29999,60.00000,1.033179e-005
 456, 86.64621,4.453620e-003,0.30002,60.00000,1.033520e-005
 458, 87.05314,4.475709e-003,0.30000,60.00000,1.033852e-005
 460, 87.45935,4.497668e-003,0.30000,60.00000,1.034149e-005
 462, 87.86709,4.519770e-003,0.30005,60.00000,1.034476e-005
 464, 88.27678,4.541168e-003,0.30003,60.00000,1.034646e-005
 466, 88.68769,4.563476e-003,0.29999,60.00000,1.035004e-005
 468, 89.09931,4.584609e-003,0.30000,60.00000,1.035103e-005
 470, 89.51008,4.605781e-003,0.30000,60.00000,1.035223e-005
 472, 89.91980,4.627146e-003,0.30010,60.00000,1.035372e-005
 474, 90.32813,4.648897e-003,0.30003,60.00000,1.035602e-005
 476, 90.73731,4.670913e-003,0.30001,60.00000,1.035886e-005
 478, 91.14874,4.693028e-003,0.30001,60.00000,1.036206e-005
 480, 91.56147,4.714709e-003,0.30000,60.00000,1.036423e-005
 482, 91.97446,4.736914e-003,0.30001,60.00000,1.036742e-005
 484, 92.38450,4.758637e-003,0.30004,60.00000,1.036965e-005
 486, 92.79144,4.780401e-003,0.29999,60.00000,1.037185e-005
 488, 93.19917,4.802440e-003,0.30001,60.00000,1.037468e-005
 490, 93.60875,4.824795e-003,0.30000,60.00000,1.037822e-005
 492, 94.01892,4.847680e-003,0.30001,60.00000,1.038277e-005
 494, 94.42763,4.870092e-003,0.30000,60.00000,1.038640e-005
 496, 94.83178,4.892617e-003,0.30005,60.00000,1.039012e-005
 498, 95.23390,4.915279e-003,0.30002,60.00000,1.039412e-005
 500, 95.63518,4.937698e-003,0.29998,60.00000,1.039760e-005
 502, 96.03856,4.960386e-003,0.30000,60.00000,1.040157e-005
 504, 96.44582,4.982747e-003,0.29998,60.00000,1.040493e-005
 506, 96.85582,5.004719e-003,0.30002,60.00000,1.040738e-005
 508, 97.26477,5.026739e-003,0.30002,60.00000,1.040987e-005
 510, 97.67045,5.047575e-003,0.30000,60.00000,1.040998e-005
 512, 98.07507,5.068345e-003,0.30000,60.00000,1.040969e-005
 514, 98.47990,5.089076e-003,0.30004,60.00000,1.040967e-005
 516, 98.88254,5.110433e-003,0.30004,60.00000,1.041071e-005
 518, 99.28672,5.131906e-003,0.30000,60.00000,1.041206e-005
 520, 99.69114,5.153925e-003,0.29997,60.00000,1.041443e-005
 522,100.097,5.175782e-003,0.30000,60.00000,1.041674e-005
 524,100.505,5.198324e-003,0.29999,60.00000,1.042003e-005
 526,100.914,5.219771e-003,0.30004,60.00000,1.042130e-005
 528,101.326,5.242008e-003,0.30000,60.00000,1.042406e-005
 530,101.734,5.264284e-003,0.29999,60.00000,1.042687e-005
 532,102.14,5.286578e-003,0.29999,60.00000,1.042977e-005
 534,102.544,5.308324e-003,0.29999,60.00000,1.043159e-005
 536,102.948,5.330442e-003,0.30001,60.00000,1.043398e-005
 538,103.351,5.352527e-003,0.30000,60.00000,1.043637e-005
 540,103.757,5.375412e-003,0.30003,60.00000,1.044035e-005
 542,104.166,5.398069e-003,0.29997,60.00000,1.044392e-005
 544,104.574,5.420310e-003,0.29999,60.00000,1.044641e-005
 546,104.982,5.443193e-003,0.30000,60.00000,1.045035e-005
 548,105.39,5.465892e-003,0.30000,60.00000,1.045377e-005
 550,105.8,5.488968e-003,0.30000,60.00000,1.045786e-005
 552,106.21,5.511203e-003,0.29999,60.00000,1.046049e-005
 554,106.621,5.533288e-003,0.30002,60.00000,1.046284e-005
 556,107.027,5.554958e-003,0.29999,60.00000,1.046418e-005
 558,107.434,5.576931e-003,0.30000,60.00000,1.046616e-005
 560,107.843,5.599428e-003,0.30002,60.00000,1.046898e-005
 562,108.252,5.622292e-003,0.29998,60.00000,1.047261e-005
 564,108.66,5.643899e-003,0.30000,60.00000,1.047387e-005
 566,109.065,5.665545e-003,0.30001,60.00000,1.047522e-005
 568,109.47,5.688149e-003,0.30001,60.00000,1.047827e-005
 570,109.874,5.710151e-003,0.30001,60.00000,1.048023e-005
 572,110.278,5.733043e-003,0.29999,60.00000,1.048383e-005
 574,110.681,5.755965e-003,0.29999,60.00000,1.048743e-005
 576,111.083,5.779089e-003,0.30000,60.00000,1.049134e-005
 578,111.485,5.801643e-003,0.29998,60.00000,1.049418e-005
 580,111.888,5.823908e-003,0.30010,60.00000,1.049643e-005
 582,112.293,5.846183e-003,0.30000,60.00000,1.049884e-005
 584,112.699,5.868393e-003,0.29999,60.00000,1.050095e-005
 586,113.102,5.890844e-003,0.29999,60.00000,1.050352e-005
 588,113.505,5.913105e-003,0.29997,60.00000,1.050590e-005
 590,113.908,5.935506e-003,0.30001,60.00000,1.050842e-005
 592,114.312,5.957854e-003,0.30000,60.00000,1.051077e-005
 594,114.717,5.979772e-003,0.29998,60.00000,1.051229e-005
 596,115.123,6.001544e-003,0.30001,60.00000,1.051369e-005
 598,115.53,6.023512e-003,0.29999,60.00000,1.051526e-005
 600,115.936,6.045086e-003,0.30001,60.00000,1.051626e-005
 602,116.341,6.067054e-003,0.30007,60.00000,1.051793e-005
 604,116.746,6.089247e-003,0.30002,60.00000,1.051992e-005
 606,117.151,6.111232e-003,0.30000,60.00000,1.052158e-005
 608,117.558,6.132553e-003,0.30001,60.00000,1.052203e-005
 610,117.966,6.154104e-003,0.30002,60.00000,1.052286e-005
 612,118.373,6.175475e-003,0.29998,60.00000,1.052348e-005
 614,118.78,6.197146e-003,0.29999,60.00000,1.052454e-005
 616,119.188,6.219348e-003,0.30004,60.00000,1.052647e-005
 618,119.6,6.241463e-003,0.29997,60.00000,1.052823e-005
 620,120.014,6.263255e-003,0.30005,60.00000,1.052958e-005
 622,120.429,6.284591e-003,0.30000,60.00000,1.053004e-005
 624,120.841,6.304963e-003,0.29987,60.00000,1.052890e-005
 626,121.248,6.326543e-003,0.29997,60.00000,1.052969e-005
 628,121.654,6.347517e-003,0.29998,60.00000,1.052963e-005
 630,122.056,6.368329e-003,0.29999,60.00000,1.052915e-005
 632,122.457,6.389115e-003,0.30002,60.00000,1.052868e-005
 634,122.862,6.410003e-003,0.29998,60.00000,1.052834e-005
 636,123.271,6.430852e-003,0.30000,60.00000,1.052809e-005
 638,123.68,6.450817e-003,0.30003,60.00000,1.052638e-005
 640,124.086,6.470768e-003,0.30000,60.00000,1.052452e-005
 642,124.492,6.490784e-003,0.30002,60.00000,1.052293e-005
 644,124.897,6.511735e-003,0.30001,60.00000,1.052264e-005
 646,125.3,6.531864e-003,0.30000,60.00000,1.052121e-005
 648,125.7,6.552047e-003,0.29999,60.00000,1.051987e-005
 650,126.097,6.571475e-003,0.30002,60.00000,1.051716e-005
 652,126.494,6.590325e-003,0.30006,60.00000,1.051371e-005
 654,126.895,6.610179e-003,0.29999,60.00000,1.051187e-005
 656,127.297,6.630210e-003,0.29999,60.00000,1.051017e-005
 658,127.701,6.650893e-003,0.29999,60.00000,1.050968e-005
 660,128.107,6.671684e-003,0.29999,60.00000,1.050927e-005
 662,128.519,6.692606e-003,0.30000,60.00000,1.050916e-005
 664,128.932,6.712943e-003,0.30000,60.00000,1.050802e-005
 666,129.342,6.731747e-003,0.30001,60.00000,1.050456e-005
 668,129.747,6.751325e-003,0.29999,60.00000,1.050233e-005
 670,130.153,6.769879e-003,0.29999,60.00000,1.049846e-005
 672,130.566,6.789019e-003,0.29998,60.00000,1.049564e-005
 674,130.987,6.808250e-003,0.30001,60.00000,1.049289e-005
 676,131.407,6.827520e-003,0.29999,60.00000,1.049026e-005
 678,131.824,6.847510e-003,0.29998,60.00000,1.048870e-005
 680,132.244,6.868091e-003,0.29998,60.00000,1.048813e-005
 682,132.667,6.888793e-003,0.30001,60.00000,1.048768e-005
 684,133.087,6.908785e-003,0.30000,60.00000,1.048621e-005
 686,133.502,6.929133e-003,0.30000,60.00000,1.048522e-005
 688,133.91,6.949806e-003,0.29999,60.00000,1.048479e-005
 690,134.314,6.971371e-003,0.30003,60.00000,1.048569e-005
 692,134.718,6.992866e-003,0.30005,60.00000,1.048649e-005
 694,135.122,7.013472e-003,0.30002,60.00000,1.048595e-005
 696,135.527,7.035055e-003,0.30001,60.00000,1.048680e-005
 698,135.933,7.056481e-003,0.30002,60.00000,1.048749e-005
 700,136.342,7.077501e-003,0.30001,60.00000,1.048761e-005
 702,136.749,7.098621e-003,0.30001,60.00000,1.048782e-005
 704,137.154,7.119786e-003,0.30001,60.00000,1.048808e-005
 706,137.551,7.140819e-003,0.30001,60.00000,1.048823e-005
 708,137.939,7.162498e-003,0.30001,60.00000,1.048921e-005
 710,138.325,7.184423e-003,0.30000,60.00000,1.049055e-005
 712,138.718,7.206509e-003,0.29999,60.00000,1.049223e-005
 714,139.118,7.228724e-003,0.30002,60.00000,1.049399e-005
 716,139.522,7.250343e-003,0.30000,60.00000,1.049491e-005
 718,139.926,7.271597e-003,0.30000,60.00000,1.049531e-005
 720,140.328,7.293000e-003,0.30000,60.00000,1.049587e-005
 722,140.727,7.314363e-003,0.30000,60.00000,1.049648e-005
 724,141.125,7.335658e-003,0.30000,60.00000,1.049689e-005
 726,141.523,7.356529e-003,0.30004,60.00000,1.049668e-005
 728,141.921,7.377470e-003,0.30001,60.00000,1.049660e-005
 730,142.319,7.398646e-003,0.29992,60.00000,1.049690e-005
 732,142.713,7.420587e-003,0.30000,60.00000,1.049822e-005
 734,143.107,7.443981e-003,0.29999,60.00000,1.050162e-005
 736,143.502,7.466164e-003,0.30000,60.00000,1.050333e-005
 738,143.897,7.488929e-003,0.30000,60.00000,1.050577e-005
 740,144.291,7.511391e-003,0.30002,60.00000,1.050779e-005
 742,144.687,7.533030e-003,0.29999,60.00000,1.050877e-005
 744,145.084,7.555269e-003,0.30002,60.00000,1.051046e-005
 746,145.48,7.577801e-003,0.30002,60.00000,1.051254e-005
 748,145.876,7.600715e-003,0.29996,60.00000,1.051517e-005
 750,146.271,7.623102e-003,0.29999,60.00000,1.051708e-005
 752,146.664,7.645887e-003,0.30003,60.00000,1.051962e-005
 754,147.052,7.669675e-003,0.29999,60.00000,1.052322e-005
 756,147.441,7.693813e-003,0.30004,60.00000,1.052758e-005
 758,147.833,7.718874e-003,0.30003,60.00000,1.053300e-005
 760,148.232,7.743748e-003,0.29999,60.00000,1.053821e-005
 762,148.637,7.768238e-003,0.29998,60.00000,1.054295e-005
 764,149.044,7.792205e-003,0.30000,60.00000,1.054686e-005
 766,149.447,7.815735e-003,0.30001,60.00000,1.055021e-005
 768,149.846,7.839342e-003,0.30003,60.00000,1.055362e-005
 770,150.241,7.863076e-003,0.29999,60.00000,1.055714e-005
 772,150.636,7.887821e-003,0.29999,60.00000,1.056199e-005
 774,151.03,7.912556e-003,0.30001,60.00000,1.056685e-005
 776,151.423,7.938165e-003,0.30000,60.00000,1.057283e-005
 778,151.814,7.962866e-003,0.30003,60.00000,1.057762e-005
 780,152.206,7.989377e-003,0.30002,60.00000,1.058472e-005
 782,152.598,8.015613e-003,0.30004,60.00000,1.059142e-005
 784,152.992,8.041686e-003,0.29999,60.00000,1.059794e-005
 786,153.387,8.067251e-003,0.30002,60.00000,1.060377e-005
 788,153.782,8.093460e-003,0.29998,60.00000,1.061035e-005
 790,154.176,8.120071e-003,0.30007,60.00000,1.061744e-005
 792,154.57,8.146033e-003,0.30000,60.00000,1.062368e-005
 794,154.963,8.173419e-003,0.30002,60.00000,1.063164e-005
 796,155.36,8.200671e-003,0.30001,60.00000,1.063946e-005
 798,155.756,8.227577e-003,0.30000,60.00000,1.064681e-005
 800,156.148,8.253882e-003,0.30002,60.00000,1.065336e-005
 802,156.54,8.279966e-003,0.30000,60.00000,1.065946e-005
 804,156.934,8.306050e-003,0.30003,60.00000,1.066566e-005
 806,157.331,8.332485e-003,0.29999,60.00000,1.067218e-005
 808,157.73,8.357791e-003,0.29998,60.00000,1.067736e-005
 810,158.129,8.383599e-003,0.29997,60.00000,1.068309e-005
 812,158.526,8.409727e-003,0.29999,60.00000,1.068915e-005
 814,158.925,8.436623e-003,0.30002,60.00000,1.069621e-005
 816,159.327,8.464122e-003,0.29998,60.00000,1.070395e-005
 818,159.729,8.491566e-003,0.30001,60.00000,1.071160e-005
 820,160.131,8.517963e-003,0.29999,60.00000,1.071788e-005
 822,160.533,8.544433e-003,0.30001,60.00000,1.072424e-005
 824,160.931,8.570301e-003,0.30002,60.00000,1.072984e-005
 826,161.325,8.595553e-003,0.30001,60.00000,1.073456e-005
 828,161.723,8.621793e-003,0.30001,60.00000,1.074056e-005
 830,162.127,8.648379e-003,0.29999,60.00000,1.074694e-005
 832,162.534,8.673984e-003,0.29998,60.00000,1.075206e-005
 834,162.939,8.699721e-003,0.30000,60.00000,1.075734e-005
 836,163.343,8.725830e-003,0.30001,60.00000,1.076304e-005
 838,163.74,8.751044e-003,0.30002,60.00000,1.076759e-005
 840,164.132,8.775762e-003,0.30001,60.00000,1.077154e-005
 842,164.521,8.801883e-003,0.30001,60.00000,1.077720e-005
 844,164.912,8.827071e-003,0.30001,60.00000,1.078158e-005
 846,165.306,8.850831e-003,0.29984,60.00000,1.078433e-005
 848,165.701,8.877230e-003,0.30001,60.00000,1.079020e-005
 850,166.096,8.905369e-003,0.30001,60.00000,1.079825e-005
 852,166.491,8.933724e-003,0.30001,60.00000,1.080646e-005
 854,166.883,8.960576e-003,0.29997,60.00000,1.081281e-005
 856,167.275,8.986173e-003,0.30000,60.00000,1.081765e-005
 858,167.668,9.010552e-003,0.30002,60.00000,1.082094e-005
 860,168.064,9.034473e-003,0.30003,60.00000,1.082366e-005
 862,168.461,9.058760e-003,0.30000,60.00000,1.082687e-005
 864,168.858,9.082795e-003,0.29999,60.00000,1.082967e-005
 866,169.255,9.108695e-003,0.30006,60.00000,1.083476e-005
 868,169.652,9.134868e-003,0.30000,60.00000,1.084013e-005
 870,170.048,9.161006e-003,0.29999,60.00000,1.084550e-005
 872,170.443,9.187334e-003,0.30001,60.00000,1.085093e-005
 874,170.838,9.214123e-003,0.29997,60.00000,1.085702e-005
 876,171.235,9.240669e-003,0.30003,60.00000,1.086267e-005
 878,171.636,9.267132e-003,0.30001,60.00000,1.086825e-005
 880,172.038,9.293322e-003,0.30001,60.00000,1.087349e-005
 882,172.442,9.318573e-003,0.30002,60.00000,1.087762e-005
 884,172.847,9.342425e-003,0.30002,60.00000,1.088005e-005
 886,173.254,9.367934e-003,0.29999,60.00000,1.088451e-005
 888,173.656,9.392270e-003,0.30000,60.00000,1.088746e-005
 890,174.054,9.417778e-003,0.29996,60.00000,1.089174e-005
 892,174.453,9.442302e-003,0.30002,60.00000,1.089494e-005
 894,174.854,9.467596e-003,0.29999,60.00000,1.089906e-005
 896,175.258,9.492281e-003,0.30002,60.00000,1.090240e-005
 898,175.662,9.516312e-003,0.30003,60.00000,1.090496e-005
 900,176.061,9.540017e-003,0.29998,60.00000,1.090709e-005
 902,176.457,9.563557e-003,0.30000,60.00000,1.090909e-005
 904,176.852,9.587062e-003,0.30000,60.00000,1.091100e-005
 906,177.245,9.611819e-003,0.29999,60.00000,1.091437e-005
 908,177.638,9.635715e-003,0.30000,60.00000,1.091677e-005
 910,178.033,9.659671e-003,0.30001,60.00000,1.091918e-005
 912,178.431,9.684296e-003,0.29999,60.00000,1.092227e-005
 914,178.831,9.708385e-003,0.29999,60.00000,1.092485e-005
 916,179.229,9.732306e-003,0.29996,60.00000,1.092717e-005
 918,179.626,9.756547e-003,0.29996,60.00000,1.092987e-005
 920,180.023,9.780718e-003,0.30001,60.00000,1.093245e-005
 922,180.419,9.804518e-003,0.30000,60.00000,1.093466e-005
 924,180.814,9.828073e-003,0.29980,60.00000,1.093654e-005
 926,181.211,9.852222e-003,0.30003,60.00000,1.093903e-005
 928,181.609,9.876210e-003,0.30000,60.00000,1.094142e-005
 930,182.006,9.900223e-003,0.30000,60.00000,1.094381e-005
 932,182.403,9.925005e-003,0.30001,60.00000,1.094700e-005
 934,182.8,9.948834e-003,0.29998,60.00000,1.094911e-005
 936,183.194,9.972499e-003,0.30001,60.00000,1.095103e-005
 938,183.588,9.996333e-003,0.29999,60.00000,1.095320e-005
 940,183.987,1.001985e-002,0.30001,60.00000,1.095496e-005
 942,184.387,1.004342e-002,0.30002,60.00000,1.095675e-005
 944,184.79,1.006627e-002,0.30000,60.00000,1.095777e-005
 946,185.193,1.008887e-002,0.29995,60.00000,1.095856e-005
 948,185.596,1.011217e-002,0.30000,60.00000,1.096006e-005
 950,185.999,1.013509e-002,0.30000,60.00000,1.096118e-005
 952,186.401,1.015802e-002,0.29998,60.00000,1.096222e-005
 954,186.804,1.018092e-002,0.30000,60.00000,1.096329e-005
 956,187.208,1.020382e-002,0.30003,60.00000,1.096434e-005
 958,187.61,1.022662e-002,0.29997,60.00000,1.096527e-005
 960,188.011,1.024918e-002,0.30001,60.00000,1.096596e-005
 962,188.413,1.027234e-002,0.30000,60.00000,1.096734e-005
 964,188.812,1.029462e-002,0.29997,60.00000,1.096767e-005
 966,189.207,1.031740e-002,0.30000,60.00000,1.096853e-005
 968,189.603,1.033978e-002,0.30012,60.00000,1.096909e-005
 970,189.998,1.036344e-002,0.29997,60.00000,1.097085e-005
 972,190.396,1.038662e-002,0.30001,60.00000,1.097217e-005
 974,190.794,1.040940e-002,0.30002,60.00000,1.097305e-005
 976,191.193,1.043175e-002,0.30000,60.00000,1.097354e-005
 978,191.59,1.045464e-002,0.29996,60.00000,1.097450e-005
 980,191.985,1.047727e-002,0.29999,60.00000,1.097521e-005
 982,192.377,1.049964e-002,0.30001,60.00000,1.097567e-005
 984,192.772,1.052253e-002,0.30003,60.00000,1.097661e-005
 986,193.168,1.054480e-002,0.30000,60.00000,1.097697e-005
 988,193.562,1.056716e-002,0.30000,60.00000,1.097742e-005
 990,193.95,1.058914e-002,0.30004,60.00000,1.097740e-005
 992,194.337,1.061246e-002,0.30000,60.00000,1.097881e-005
 994,194.732,1.063602e-002,0.30003,60.00000,1.098047e-005
 996,195.132,1.065915e-002,0.30001,60.00000,1.098168e-005
 998,195.539,1.068236e-002,0.29999,60.00000,1.098301e-005
1000,195.943,1.070494e-002,0.30006,60.00000,1.098361e-005
1002,196.346,1.072836e-002,0.30002,60.00000,1.098513e-005
1004,196.75,1.075130e-002,0.30003,60.00000,1.098612e-005
1006,197.154,1.077392e-002,0.30002,60.00000,1.098676e-005
1008,197.556,1.079672e-002,0.30002,60.00000,1.098761e-005
1010,197.959,1.081911e-002,0.29999,60.00000,1.098804e-005
1012,198.365,1.084174e-002,0.30000,60.00000,1.098872e-005
1014,198.773,1.086434e-002,0.30004,60.00000,1.098933e-005
1016,199.181,1.088638e-002,0.29999,60.00000,1.098945e-005
1018,199.58,1.090746e-002,0.29999,60.00000,1.098851e-005
1020,199.976,1.092993e-002,0.29999,60.00000,1.098903e-005
1022,200.367,1.095230e-002,0.30003,60.00000,1.098937e-005
1024,200.758,1.097491e-002,0.29999,60.00000,1.099002e-005
1026,201.151,1.099741e-002,0.30003,60.00000,1.099054e-005
1028,201.547,1.102022e-002,0.30003,60.00000,1.099137e-005
1030,201.947,1.104302e-002,0.30000,60.00000,1.099219e-005
1032,202.346,1.106558e-002,0.30002,60.00000,1.099278e-005
1034,202.744,1.108854e-002,0.30000,60.00000,1.099373e-005
1036,203.142,1.111088e-002,0.30003,60.00000,1.099410e-005
1038,203.537,1.113295e-002,0.30001,60.00000,1.099418e-005
1040,203.929,1.115633e-002,0.29998,60.00000,1.099557e-005
1042,204.322,1.118053e-002,0.30005,60.00000,1.099776e-005
1044,204.711,1.120404e-002,0.30001,60.00000,1.099926e-005
1046,205.098,1.122701e-002,0.29999,60.00000,1.100018e-005
1048,205.486,1.125072e-002,0.30001,60.00000,1.100188e-005
1050,205.88,1.127318e-002,0.29999,60.00000,1.100235e-005
1052,206.277,1.129591e-002,0.29999,60.00000,1.100298e-005
1054,206.678,1.131820e-002,0.29999,60.00000,1.100327e-005
1056,207.08,1.134008e-002,0.29997,60.00000,1.100318e-005
1058,207.486,1.136230e-002,0.30000,60.00000,1.100333e-005
1060,207.895,1.138398e-002,0.30002,60.00000,1.100306e-005
1062,208.304,1.140535e-002,0.30019,60.00000,1.100245e-005
1064,208.714,1.142776e-002,0.30001,60.00000,1.100288e-005
1066,209.119,1.144893e-002,0.30003,60.00000,1.100204e-005
1068,209.52,1.147026e-002,0.29998,60.00000,1.100135e-005
1070,209.919,1.149205e-002,0.30001,60.00000,1.100114e-005
1072,210.32,1.151324e-002,0.29999,60.00000,1.100040e-005
1074,210.725,1.153441e-002,0.30003,60.00000,1.099961e-005
1076,211.129,1.155526e-002,0.30003,60.00000,1.099854e-005
1078,211.524,1.157659e-002,0.29999,60.00000,1.099785e-005
1080,211.92,1.159840e-002,0.30000,60.00000,1.099771e-005
1082,212.317,1.162014e-002,0.29998,60.00000,1.099744e-005
1084,212.713,1.164152e-002,0.30002,60.00000,1.099682e-005
1086,213.108,1.166343e-002,0.29999,60.00000,1.099677e-005
1088,213.5,1.168506e-002,0.30004,60.00000,1.099646e-005
1090,213.89,1.170737e-002,0.30001,60.00000,1.099677e-005
1092,214.282,1.172965e-002,0.30000,60.00000,1.099700e-005
1094,214.676,1.175188e-002,0.30004,60.00000,1.099722e-005
1096,215.07,1.177357e-002,0.30002,60.00000,1.099698e-005
1098,215.465,1.179529e-002,0.30000,60.00000,1.099672e-005
1100,215.859,1.181705e-002,0.30000,60.00000,1.099647e-005
1102,216.25,1.183907e-002,0.30000,60.00000,1.099651e-005
1104,216.64,1.186096e-002,0.30002,60.00000,1.099643e-005
1106,217.034,1.188337e-002,0.29999,60.00000,1.099677e-005
1108,217.433,1.190513e-002,0.30000,60.00000,1.099654e-005
1110,217.835,1.192627e-002,0.29999,60.00000,1.099577e-005
1112,218.237,1.194710e-002,0.29999,60.00000,1.099470e-005
1114,218.639,1.196852e-002,0.30004,60.00000,1.099421e-005
1116,219.042,1.199019e-002,0.29997,60.00000,1.099390e-005
1118,219.444,1.201203e-002,0.30003,60.00000,1.099376e-005
1120,219.846,1.203407e-002,0.30002,60.00000,1.099383e-005
1122,220.253,1.205558e-002,0.30001,60.00000,1.099337e-005
1124,220.656,1.207707e-002,0.30000,60.00000,1.099295e-005
1126,221.055,1.209821e-002,0.30005,60.00000,1.099214e-005
1128,221.46,1.211964e-002,0.30001,60.00000,1.099165e-005
1130,221.862,1.214050e-002,0.29998,60.00000,1.099066e-005
1132,222.262,1.216142e-002,0.30003,60.00000,1.098965e-005
1134,222.66,1.218292e-002,0.30000,60.00000,1.098924e-005
1136,223.053,1.220432e-002,0.30003,60.00000,1.098867e-005
1138,223.447,1.222629e-002,0.30003,60.00000,1.098865e-005
1140,223.843,1.224904e-002,0.29999,60.00000,1.098938e-005
1142,224.243,1.227139e-002,0.29999,60.00000,1.098974e-005
1144,224.644,1.229211e-002,0.30003,60.00000,1.098862e-005
1146,225.038,1.231320e-002,0.30003,60.00000,1.098780e-005
1148,225.432,1.233474e-002,0.30001,60.00000,1.098741e-005
1150,225.824,1.235622e-002,0.29998,60.00000,1.098695e-005
1152,226.217,1.237741e-002,0.30000,60.00000,1.098621e-005
1154,226.613,1.239912e-002,0.29997,60.00000,1.098599e-005
1156,227.013,1.242118e-002,0.30001,60.00000,1.098606e-005
1158,227.413,1.244238e-002,0.29998,60.00000,1.098544e-005
1160,227.811,1.246346e-002,0.29998,60.00000,1.098458e-005
1162,228.21,1.248483e-002,0.30002,60.00000,1.098416e-005
1164,228.603,1.250590e-002,0.29997,60.00000,1.098327e-005
1166,228.998,1.252749e-002,0.30002,60.00000,1.098299e-005
1168,229.4,1.255048e-002,0.29999,60.00000,1.098383e-005
1170,229.81,1.257208e-002,0.30001,60.00000,1.098348e-005
1172,230.231,1.259395e-002,0.29995,60.00000,1.098347e-005
1174,230.644,1.261441e-002,0.30000,60.00000,1.098221e-005
1176,231.048,1.263506e-002,0.29999,60.00000,1.098100e-005
1178,231.449,1.265654e-002,0.30000,60.00000,1.098056e-005
1180,231.853,1.267771e-002,0.30001,60.00000,1.097992e-005
1182,232.256,1.269823e-002,0.30003,60.00000,1.097865e-005
1184,232.658,1.271931e-002,0.30002,60.00000,1.097789e-005
1186,233.058,1.274048e-002,0.30002,60.00000,1.097719e-005
1188,233.456,1.276088e-002,0.30007,60.00000,1.097585e-005
1190,233.845,1.278122e-002,0.29998,60.00000,1.097442e-005
1192,234.237,1.280171e-002,0.30015,60.00000,1.097325e-005
1194,234.634,1.282319e-002,0.30000,60.00000,1.097280e-005
1196,235.029,1.284385e-002,0.30000,60.00000,1.097175e-005
1198,235.415,1.286551e-002,0.30003,60.00000,1.097142e-005
1200,235.811,1.288751e-002,0.29998,60.00000,1.097151e-005
1202,236.215,1.290855e-002,0.30000,60.00000,1.097073e-005
1204,236.621,1.292968e-002,0.29997,60.00000,1.097017e-005
1206,237.014,1.295110e-002,0.29996,60.00000,1.096960e-005
1208,237.405,1.297298e-002,0.30000,60.00000,1.096950e-005
1210,237.803,1.299535e-002,0.29998,60.00000,1.096992e-005
1212,238.191,1.301746e-002,0.29997,60.00000,1.097014e-005
1214,238.559,1.303968e-002,0.30000,60.00000,1.097033e-005
1216,238.925,1.306282e-002,0.29999,60.00000,1.097119e-005
1218,239.327,1.308579e-002,0.29997,60.00000,1.097210e-005
1220,239.764,1.310687e-002,0.29998,60.00000,1.097146e-005
1222,240.199,1.312658e-002,0.29999,60.00000,1.096966e-005
1224,240.592,1.314676e-002,0.30002,60.00000,1.096826e-005
1226,240.942,1.316914e-002,0.30001,60.00000,1.096854e-005
1228,241.276,1.319334e-002,0.29997,60.00000,1.097038e-005
1230,241.625,1.321837e-002,0.30000,60.00000,1.097286e-005
1232,242.007,1.324168e-002,0.30001,60.00000,1.097397e-005
1234,242.451,1.326291e-002,0.30000,60.00000,1.097339e-005
1236,242.951,1.327932e-002,0.30000,60.00000,1.096890e-005
1238,243.439,1.329449e-002,0.30001,60.00000,1.096341e-005
1240,243.871,1.331192e-002,0.30000,60.00000,1.095969e-005
1242,244.264,1.333178e-002,0.30000,60.00000,1.095794e-005
1244,244.638,1.335212e-002,0.30000,60.00000,1.095658e-005
1246,245.013,1.337371e-002,0.29999,60.00000,1.095627e-005
1248,245.405,1.339491e-002,0.30002,60.00000,1.095572e-005
1250,245.81,1.341556e-002,0.29999,60.00000,1.095470e-005
1252,246.212,1.343578e-002,0.30003,60.00000,1.095338e-005
1254,246.584,1.345605e-002,0.29998,60.00000,1.095213e-005
1256,246.911,1.347773e-002,0.30000,60.00000,1.095188e-005
1258,247.22,1.350148e-002,0.30004,60.00000,1.095322e-005
1260,247.539,1.352596e-002,0.29996,60.00000,1.095525e-005
1262,247.892,1.354933e-002,0.29998,60.00000,1.095646e-005
1264,248.313,1.357012e-002,0.30001,60.00000,1.095548e-005
1266,248.87,1.358371e-002,0.30002,60.00000,1.094897e-005
1268,249.396,1.359371e-002,0.30001,60.00000,1.093947e-005
1270,249.801,1.360908e-002,0.29998,60.00000,1.093428e-005
1272,250.133,1.362834e-002,0.30001,60.00000,1.093209e-005
1274,250.438,1.365079e-002,0.30000,60.00000,1.093240e-005
1276,250.745,1.367419e-002,0.30002,60.00000,1.093359e-005
1278,251.078,1.369741e-002,0.30000,60.00000,1.093461e-005
1280,251.459,1.371857e-002,0.30025,60.00000,1.093409e-005
1282,251.927,1.373523e-002,0.29998,60.00000,1.092994e-005
1284,252.501,1.374465e-002,0.29999,60.00000,1.092011e-005
1286,253.039,1.375375e-002,0.29999,60.00000,1.091010e-005
1288,253.465,1.376797e-002,0.29996,60.00000,1.090412e-005
1290,253.805,1.378555e-002,0.29998,60.00000,1.090077e-005
1292,254.102,1.380771e-002,0.29999,60.00000,1.090086e-005
1294,254.395,1.383094e-002,0.29998,60.00000,1.090186e-005
1296,254.71,1.385358e-002,0.30001,60.00000,1.090250e-005
1298,255.075,1.387403e-002,0.30000,60.00000,1.090140e-005
1300,255.53,1.388862e-002,0.29999,60.00000,1.089575e-005
1302,256.119,1.389536e-002,0.30000,60.00000,1.088407e-005
1304,256.7,1.390078e-002,0.30001,60.00000,1.087133e-005
1306,257.146,1.391114e-002,0.30002,60.00000,1.086258e-005
1308,257.482,1.392835e-002,0.30003,60.00000,1.085900e-005
1310,257.772,1.395101e-002,0.30003,60.00000,1.085955e-005
1312,258.052,1.397421e-002,0.30001,60.00000,1.086062e-005
1314,258.346,1.399637e-002,0.29997,60.00000,1.086086e-005
1316,258.672,1.401579e-002,0.30005,60.00000,1.085908e-005
1318,259.053,1.403315e-002,0.30000,60.00000,1.085566e-005
1320,259.536,1.404669e-002,0.30002,60.00000,1.084944e-005
1322,260.093,1.405644e-002,0.30012,60.00000,1.084035e-005
1324,260.592,1.406742e-002,0.30004,60.00000,1.083210e-005
1326,260.996,1.408178e-002,0.29996,60.00000,1.082664e-005
1328,261.314,1.409928e-002,0.29998,60.00000,1.082332e-005
1330,261.602,1.412085e-002,0.30001,60.00000,1.082308e-005
1332,261.895,1.414352e-002,0.30003,60.00000,1.082379e-005
1334,262.216,1.416481e-002,0.30000,60.00000,1.082345e-005
1336,262.578,1.418254e-002,0.30001,60.00000,1.082055e-005
1338,262.992,1.419610e-002,0.29999,60.00000,1.081435e-005
1340,263.475,1.420488e-002,0.29997,60.00000,1.080455e-005
1342,264.016,1.420886e-002,0.29998,60.00000,1.079117e-005
1344,264.547,1.421061e-002,0.29999,60.00000,1.077621e-005
1346,264.982,1.421514e-002,0.30002,60.00000,1.076337e-005
1348,265.325,1.422548e-002,0.29999,60.00000,1.075485e-005
1350,265.622,1.424051e-002,0.30004,60.00000,1.074973e-005
1352,265.917,1.425628e-002,0.30002,60.00000,1.074535e-005
1354,266.235,1.427016e-002,0.29999,60.00000,1.073955e-005
1356,266.597,1.427936e-002,0.29999,60.00000,1.073027e-005
1358,267.018,1.428367e-002,0.30001,60.00000,1.071741e-005
1360,267.49,1.428250e-002,0.30000,60.00000,1.070048e-005
1362,267.998,1.427725e-002,0.30000,60.00000,1.068051e-005
1364,268.503,1.427200e-002,0.29999,60.00000,1.066060e-005
1366,268.952,1.426927e-002,0.30004,60.00000,1.064267e-005
1368,269.335,1.427202e-002,0.29998,60.00000,1.062885e-005
1370,269.666,1.427882e-002,0.30002,60.00000,1.061796e-005
1372,269.981,1.428904e-002,0.29997,60.00000,1.060966e-005
1374,270.303,1.429946e-002,0.29997,60.00000,1.060160e-005
1376,270.654,1.430641e-002,0.30000,60.00000,1.059101e-005
1378,271.043,1.431103e-002,0.29999,60.00000,1.057871e-005
1380,271.473,1.431167e-002,0.30002,60.00000,1.056362e-005
1382,271.917,1.431124e-002,0.29998,60.00000,1.054762e-005
1384,272.36,1.431003e-002,0.30001,60.00000,1.053124e-005
1386,272.771,1.431107e-002,0.30001,60.00000,1.051646e-005
1388,273.155,1.431375e-002,0.29999,60.00000,1.050289e-005
1390,273.521,1.431905e-002,0.30000,60.00000,1.049138e-005
1392,273.883,1.432302e-002,0.29999,60.00000,1.047883e-005
1394,274.259,1.432812e-002,0.29999,60.00000,1.046720e-005
1396,274.656,1.432957e-002,0.29998,60.00000,1.045296e-005
1398,275.071,1.432681e-002,0.30000,60.00000,1.043565e-005
1400,275.495,1.432311e-002,0.29999,60.00000,1.041774e-005