File: 李院长 MgO-C  C9-基 1400 @ S2-1.csv
#EXPORTTYPE:       ,DATA ALL                        ,,,,
#FILE:             ,李院长 MgO-C C9-骨 C9-基 1400.ngb-dl9,,,,
#FORMAT:           ,NETZSCH5                        ,,,,
#FTYPE:            ,ANSI                            ,,,,
#IDENTITY:         ,C9-基                            ,,,,
#DECIMAL:          ,POINT                           ,,,,
#SEPARATOR:        ,COMMA                           ,,,,
#MTYPE:            ,DIL                             ,,,,
#INSTRUMENT:       ,NETZSCH DIL 402SU               ,,,,
#PROJECT:          ,123,,,,
#DATE/TIME:        ,2025/6/4 16:10:34 (UTC+8)       ,,,,
#CORR. FILE:       ,石墨炉 1400度-1.ngb-cl9             ,,,,
#TEMPCAL:          ,TCALZERO.TMX                    ,,,,
#LABORATORY:       ,wust                            ,,,,
#OPERATOR:         ,                                ,,,,
#REMARK:           ,                                ,,,,
#SAMPLE:           ,镁碳                              ,,,,
#SAMPLE LENGTH /mm:,25.08,,,,
#MATERIAL:         ,镁碳                              ,,,,
#MEASMODE:         ,Standard Expansion              ,,,,
#M.RANGE /μm:      ,50000,,,,
#CORR. CODE:       ,80,,,,
#RANGE:            ,25°C/5.0(K/min)/1403°C          ,,,,
#SEGMENT:          ,S1/2                            ,,,,
#SEG. 1:           ,25°C/5.0(K/min)/1403°C          ,,,,
#Tref:             ,30.0°C                          ,,,,
,,,,,
##Temp./°C,Time/min,dL/Lo,Force/N,Gas Flow(protective)/(ml/min),m. CTE(1)/(1/K)
50,4.64564,2.70E-04,0.29996,60,1.10E-05
52,4.98442,2.81E-04,0.30001,60,1.05E-05
54,5.30879,2.88E-04,0.30003,60,9.91E-06
56,5.64792,2.95E-04,0.29998,60,9.43E-06
58,6.0326,3.06E-04,0.29996,60,9.13E-06
60,6.49889,3.24E-04,0.3,60,9.11E-06
62,7.01386,3.46E-04,0.30005,60,9.25E-06
64,7.46891,3.66E-04,0.2999,60,9.30E-06
66,7.85555,3.78E-04,0.3,60,9.11E-06
68,8.19788,3.86E-04,0.30001,60,8.85E-06
70,8.52413,3.91E-04,0.30007,60,8.52E-06
72,8.86115,3.98E-04,0.3,60,8.27E-06
74,9.24096,4.07E-04,0.30005,60,8.12E-06
76,9.69478,4.24E-04,0.29998,60,8.13E-06
78,10.18614,4.45E-04,0.30003,60,8.22E-06
80,10.63044,4.62E-04,0.29998,60,8.25E-06
82,11.01891,4.75E-04,0.29999,60,8.17E-06
84,11.36924,4.84E-04,0.30004,60,8.04E-06
86,11.70419,4.91E-04,0.29998,60,7.87E-06
88,12.05264,4.99E-04,0.29996,60,7.75E-06
90,12.44477,5.11E-04,0.30003,60,7.69E-06
92,12.90325,5.30E-04,0.29993,60,7.74E-06
94,13.38261,5.51E-04,0.29997,60,7.82E-06
96,13.82116,5.67E-04,0.30005,60,7.83E-06
98,14.2121,5.79E-04,0.29999,60,7.78E-06
100,14.5715,5.89E-04,0.30002,60,7.70E-06
102,14.9186,5.99E-04,0.30005,60,7.62E-06
104,15.27729,6.09E-04,0.29996,60,7.55E-06
106,15.67433,6.24E-04,0.30002,60,7.55E-06
108,16.12355,6.42E-04,0.30002,60,7.59E-06
110,16.58786,6.63E-04,0.29999,60,7.66E-06
112,17.02829,6.79E-04,0.3,60,7.68E-06
114,17.43861,6.93E-04,0.3,60,7.66E-06
116,17.82614,7.06E-04,0.30001,60,7.62E-06
118,18.20235,7.18E-04,0.29999,60,7.59E-06
120,18.57839,7.32E-04,0.30003,60,7.57E-06
122,18.96369,7.44E-04,0.29995,60,7.54E-06
124,19.3677,7.61E-04,0.29994,60,7.57E-06
126,19.79232,7.80E-04,0.30001,60,7.60E-06
128,20.2322,7.98E-04,0.29998,60,7.64E-06
130,20.67438,8.15E-04,0.29998,60,7.65E-06
132,21.11025,8.31E-04,0.30002,60,7.66E-06
134,21.53341,8.42E-04,0.29999,60,7.61E-06
136,21.94286,8.54E-04,0.29998,60,7.59E-06
138,22.3427,8.68E-04,0.29997,60,7.57E-06
140,22.73694,8.81E-04,0.30002,60,7.56E-06
142,23.13038,8.96E-04,0.3,60,7.55E-06
144,23.52876,9.12E-04,0.3,60,7.56E-06
146,23.9348,9.29E-04,0.29996,60,7.58E-06
148,24.34971,9.48E-04,0.3,60,7.61E-06
150,24.77191,9.67E-04,0.30014,60,7.64E-06
152,25.19686,9.85E-04,0.29998,60,7.66E-06
154,25.61957,1.00E-03,0.30007,60,7.68E-06
156,26.03678,1.02E-03,0.30008,60,7.68E-06
158,26.44616,1.03E-03,0.30002,60,7.69E-06
160,26.84918,1.05E-03,0.30001,60,7.68E-06
162,27.24638,1.06E-03,0.30003,60,7.67E-06
164,27.641,1.08E-03,0.29998,60,7.67E-06
166,28.03514,1.09E-03,0.30003,60,7.68E-06
168,28.43028,1.11E-03,0.29997,60,7.68E-06
170,28.82815,1.13E-03,0.30002,60,7.70E-06
172,29.22746,1.15E-03,0.30006,60,7.71E-06
174,29.62843,1.16E-03,0.30001,60,7.72E-06
176,30.02883,1.18E-03,0.30007,60,7.73E-06
178,30.42776,1.20E-03,0.29998,60,7.74E-06
180,30.82554,1.21E-03,0.29998,60,7.74E-06
182,31.2232,1.23E-03,0.29999,60,7.75E-06
184,31.62106,1.24E-03,0.30002,60,7.75E-06
186,32.02005,1.26E-03,0.30003,60,7.76E-06
188,32.41916,1.28E-03,0.29998,60,7.77E-06
190,32.81964,1.29E-03,0.30001,60,7.78E-06
192,33.21986,1.31E-03,0.29998,60,7.78E-06
194,33.62067,1.33E-03,0.29998,60,7.79E-06
196,34.02054,1.34E-03,0.29993,60,7.79E-06
198,34.41944,1.36E-03,0.30002,60,7.79E-06
200,34.81877,1.38E-03,0.30006,60,7.80E-06
202,35.2178,1.39E-03,0.30005,60,7.80E-06
204,35.61552,1.41E-03,0.29999,60,7.80E-06
206,36.01288,1.42E-03,0.29999,60,7.81E-06
208,36.41121,1.44E-03,0.30003,60,7.81E-06
210,36.81024,1.46E-03,0.30001,60,7.82E-06
212,37.21204,1.47E-03,0.30004,60,7.83E-06
214,37.61322,1.49E-03,0.3,60,7.82E-06
216,38.0138,1.51E-03,0.30003,60,7.83E-06
218,38.41453,1.52E-03,0.30009,60,7.84E-06
220,38.81529,1.54E-03,0.29999,60,7.84E-06
222,39.2155,1.56E-03,0.30002,60,7.85E-06
224,39.61543,1.57E-03,0.29996,60,7.86E-06
226,40.01636,1.59E-03,0.29998,60,7.86E-06
228,40.4181,1.61E-03,0.3,60,7.87E-06
230,40.82084,1.62E-03,0.3001,60,7.87E-06
232,41.22366,1.64E-03,0.29999,60,7.88E-06
234,41.62553,1.66E-03,0.30001,60,7.87E-06
236,42.0266,1.67E-03,0.3,60,7.89E-06
238,42.4275,1.69E-03,0.29993,60,7.89E-06
240,42.82678,1.71E-03,0.29993,60,7.90E-06
242,43.22612,1.73E-03,0.3,60,7.90E-06
244,43.62566,1.74E-03,0.30001,60,7.90E-06
246,44.0257,1.76E-03,0.29997,60,7.91E-06
248,44.42737,1.78E-03,0.29997,60,7.92E-06
250,44.8293,1.80E-03,0.30006,60,7.93E-06
252,45.23001,1.81E-03,0.30001,60,7.94E-06
254,45.63004,1.83E-03,0.30002,60,7.94E-06
256,46.02959,1.84E-03,0.30002,60,7.94E-06
258,46.42805,1.86E-03,0.29997,60,7.94E-06
260,46.82443,1.88E-03,0.29998,60,7.94E-06
262,47.21976,1.89E-03,0.3,60,7.94E-06
264,47.61377,1.91E-03,0.30001,60,7.94E-06
266,48.00808,1.92E-03,0.30004,60,7.94E-06
268,48.40269,1.94E-03,0.30001,60,7.94E-06
270,48.79958,1.96E-03,0.29996,60,7.95E-06
272,49.19737,1.97E-03,0.29999,60,7.95E-06
274,49.59772,1.99E-03,0.30004,60,7.95E-06
276,49.99902,2.01E-03,0.30001,60,7.95E-06
278,50.39972,2.02E-03,0.30001,60,7.96E-06
280,50.79958,2.04E-03,0.30005,60,7.96E-06
282,51.19951,2.06E-03,0.29995,60,7.97E-06
284,51.60002,2.07E-03,0.3,60,7.96E-06
286,52.00046,2.09E-03,0.29988,60,7.97E-06
288,52.40115,2.11E-03,0.3,60,7.97E-06
290,52.80394,2.12E-03,0.29997,60,7.98E-06
292,53.20846,2.14E-03,0.3,60,7.98E-06
294,53.61487,2.16E-03,0.29996,60,7.98E-06
296,54.02189,2.17E-03,0.29995,60,7.98E-06
298,54.43003,2.19E-03,0.30002,60,7.98E-06
300,54.838,2.20E-03,0.30002,60,7.98E-06
302,55.24447,2.22E-03,0.29997,60,7.97E-06
304,55.65009,2.23E-03,0.30001,60,7.97E-06
306,56.05526,2.25E-03,0.30002,60,7.96E-06
308,56.4604,2.26E-03,0.30003,60,7.96E-06
310,56.86572,2.28E-03,0.3,60,7.96E-06
312,57.26985,2.29E-03,0.29999,60,7.96E-06
314,57.67373,2.31E-03,0.29999,60,7.96E-06
316,58.08016,2.33E-03,0.30004,60,7.96E-06
318,58.48886,2.34E-03,0.30001,60,7.96E-06
320,58.90046,2.36E-03,0.30002,60,7.96E-06
322,59.31498,2.38E-03,0.30004,60,7.96E-06
324,59.73033,2.39E-03,0.3001,60,7.97E-06
326,60.14243,2.41E-03,0.29997,60,7.97E-06
328,60.55065,2.42E-03,0.30002,60,7.97E-06
330,60.95519,2.44E-03,0.30001,60,7.97E-06
332,61.35909,2.46E-03,0.29996,60,7.97E-06
334,61.76503,2.47E-03,0.29996,60,7.97E-06
336,62.17446,2.49E-03,0.3,60,7.96E-06
338,62.5859,2.50E-03,0.29994,60,7.96E-06
340,62.99578,2.52E-03,0.30001,60,7.96E-06
342,63.40124,2.53E-03,0.29998,60,7.95E-06
344,63.80178,2.54E-03,0.30001,60,7.94E-06
346,64.20066,2.56E-03,0.29996,60,7.94E-06
348,64.60106,2.57E-03,0.29996,60,7.93E-06
350,65.00567,2.59E-03,0.3,60,7.93E-06
352,65.41411,2.60E-03,0.29999,60,7.92E-06
354,65.82497,2.61E-03,0.30001,60,7.91E-06
356,66.23533,2.63E-03,0.30005,60,7.91E-06
358,66.64115,2.64E-03,0.3,60,7.90E-06
360,67.04418,2.66E-03,0.3,60,7.89E-06
362,67.44771,2.67E-03,0.29998,60,7.89E-06
364,67.85493,2.68E-03,0.30001,60,7.88E-06
366,68.26618,2.70E-03,0.30004,60,7.88E-06
368,68.67916,2.71E-03,0.29999,60,7.88E-06
370,69.09015,2.73E-03,0.29998,60,7.87E-06
372,69.49786,2.74E-03,0.29999,60,7.87E-06
374,69.90542,2.75E-03,0.29998,60,7.86E-06
376,70.31258,2.77E-03,0.29994,60,7.86E-06
378,70.72034,2.78E-03,0.3,60,7.85E-06
380,71.12915,2.80E-03,0.29994,60,7.85E-06
382,71.53879,2.81E-03,0.30009,60,7.85E-06
384,71.94713,2.83E-03,0.3,60,7.85E-06
386,72.35616,2.84E-03,0.29997,60,7.84E-06
388,72.76495,2.86E-03,0.29997,60,7.84E-06
390,73.17292,2.87E-03,0.29999,60,7.84E-06
392,73.58057,2.89E-03,0.29997,60,7.84E-06
394,73.98751,2.90E-03,0.3,60,7.84E-06
396,74.39319,2.92E-03,0.30001,60,7.84E-06
398,74.80184,2.93E-03,0.29993,60,7.84E-06
400,75.2137,2.95E-03,0.29998,60,7.84E-06
402,75.62902,2.97E-03,0.30005,60,7.84E-06
404,76.04634,2.98E-03,0.29995,60,7.83E-06
406,76.46335,2.99E-03,0.30003,60,7.83E-06
408,76.87584,3.01E-03,0.30003,60,7.82E-06
410,77.28445,3.02E-03,0.30008,60,7.82E-06
412,77.68989,3.03E-03,0.29998,60,7.81E-06
414,78.09597,3.05E-03,0.30002,60,7.80E-06
416,78.50571,3.06E-03,0.30003,60,7.80E-06
418,78.91774,3.08E-03,0.29999,60,7.80E-06
420,79.3293,3.09E-03,0.30004,60,7.79E-06
422,79.73679,3.10E-03,0.29996,60,7.79E-06
424,80.14058,3.12E-03,0.29998,60,7.79E-06
426,80.54165,3.13E-03,0.3,60,7.79E-06
428,80.9426,3.15E-03,0.30001,60,7.79E-06
430,81.34578,3.17E-03,0.30001,60,7.79E-06
432,81.75175,3.18E-03,0.3,60,7.79E-06
434,82.16064,3.20E-03,0.29999,60,7.79E-06
436,82.56921,3.21E-03,0.29997,60,7.79E-06
438,82.97681,3.23E-03,0.30002,60,7.78E-06
440,83.38331,3.24E-03,0.30001,60,7.78E-06
442,83.78819,3.26E-03,0.29994,60,7.78E-06
444,84.1935,3.27E-03,0.29995,60,7.78E-06
446,84.60101,3.29E-03,0.30002,60,7.78E-06
448,85.00934,3.30E-03,0.30007,60,7.78E-06
450,85.41812,3.32E-03,0.30001,60,7.77E-06
452,85.82796,3.33E-03,0.30002,60,7.77E-06
454,86.23808,3.35E-03,0.30005,60,7.77E-06
456,86.64621,3.36E-03,0.30003,60,7.77E-06
458,87.05314,3.38E-03,0.3,60,7.78E-06
460,87.45935,3.39E-03,0.30001,60,7.77E-06
462,87.86709,3.41E-03,0.30002,60,7.78E-06
464,88.27678,3.43E-03,0.3,60,7.78E-06
466,88.68769,3.44E-03,0.29997,60,7.78E-06
468,89.09931,3.46E-03,0.30005,60,7.78E-06
470,89.51008,3.48E-03,0.3,60,7.79E-06
472,89.9198,3.49E-03,0.3,60,7.79E-06
474,90.32813,3.51E-03,0.3,60,7.79E-06
476,90.73731,3.53E-03,0.30001,60,7.80E-06
478,91.14874,3.54E-03,0.29997,60,7.80E-06
480,91.56147,3.56E-03,0.30001,60,7.80E-06
482,91.97446,3.58E-03,0.3,60,7.80E-06
484,92.3845,3.59E-03,0.30005,60,7.80E-06
486,92.79144,3.61E-03,0.29997,60,7.80E-06
488,93.19917,3.62E-03,0.3,60,7.80E-06
490,93.60875,3.64E-03,0.29996,60,7.80E-06
492,94.01892,3.65E-03,0.29991,60,7.80E-06
494,94.42763,3.67E-03,0.29997,60,7.80E-06
496,94.83178,3.69E-03,0.29997,60,7.80E-06
498,95.2339,3.70E-03,0.29994,60,7.81E-06
500,95.63518,3.72E-03,0.30002,60,7.81E-06
502,96.03856,3.74E-03,0.30003,60,7.81E-06
504,96.44582,3.75E-03,0.30002,60,7.81E-06
506,96.85582,3.77E-03,0.29999,60,7.81E-06
508,97.26477,3.78E-03,0.30003,60,7.81E-06
510,97.67045,3.80E-03,0.29999,60,7.81E-06
512,98.07507,3.82E-03,0.29997,60,7.81E-06
514,98.4799,3.83E-03,0.30001,60,7.81E-06
516,98.88254,3.85E-03,0.30004,60,7.81E-06
518,99.28672,3.86E-03,0.30001,60,7.82E-06
520,99.69114,3.88E-03,0.30001,60,7.82E-06
522,100.097,3.90E-03,0.29998,60,7.82E-06
524,100.505,3.91E-03,0.29998,60,7.82E-06
526,100.914,3.93E-03,0.30004,60,7.82E-06
528,101.326,3.95E-03,0.30002,60,7.82E-06
530,101.734,3.96E-03,0.30011,60,7.82E-06
532,102.14,3.98E-03,0.29999,60,7.82E-06
534,102.544,3.99E-03,0.30001,60,7.83E-06
536,102.9475,4.01E-03,0.3,60,7.83E-06
538,103.351,4.03E-03,0.29999,60,7.83E-06
540,103.757,4.04E-03,0.30001,60,7.83E-06
542,104.166,4.06E-03,0.3,60,7.83E-06
544,104.574,4.08E-03,0.30001,60,7.83E-06
546,104.9819,4.09E-03,0.3,60,7.84E-06
548,105.3901,4.11E-03,0.3,60,7.84E-06
550,105.8,4.12E-03,0.29999,60,7.84E-06
552,106.2104,4.14E-03,0.29999,60,7.84E-06
554,106.621,4.16E-03,0.29999,60,7.84E-06
556,107.027,4.17E-03,0.29996,60,7.84E-06
558,107.434,4.19E-03,0.30003,60,7.84E-06
560,107.843,4.20E-03,0.29994,60,7.84E-06
562,108.252,4.22E-03,0.29999,60,7.84E-06
564,108.66,4.24E-03,0.29998,60,7.84E-06
566,109.065,4.25E-03,0.29996,60,7.84E-06
568,109.47,4.26E-03,0.3,60,7.83E-06
570,109.874,4.28E-03,0.29997,60,7.83E-06
572,110.278,4.29E-03,0.29998,60,7.83E-06
574,110.681,4.31E-03,0.29999,60,7.83E-06
576,111.083,4.32E-03,0.29997,60,7.83E-06
578,111.485,4.34E-03,0.30001,60,7.82E-06
580,111.888,4.35E-03,0.30001,60,7.82E-06
582,112.2935,4.37E-03,0.30001,60,7.82E-06
584,112.699,4.38E-03,0.30004,60,7.81E-06
586,113.102,4.39E-03,0.30004,60,7.81E-06
588,113.505,4.41E-03,0.29995,60,7.81E-06
590,113.908,4.42E-03,0.3,60,7.80E-06
592,114.312,4.43E-03,0.30004,60,7.80E-06
594,114.717,4.45E-03,0.30001,60,7.80E-06
596,115.123,4.46E-03,0.30003,60,7.80E-06
598,115.53,4.48E-03,0.30001,60,7.79E-06
600,115.936,4.49E-03,0.30005,60,7.79E-06
602,116.341,4.51E-03,0.30005,60,7.79E-06
604,116.746,4.52E-03,0.30003,60,7.79E-06
606,117.151,4.54E-03,0.29998,60,7.79E-06
608,117.558,4.55E-03,0.3,60,7.79E-06
610,117.966,4.57E-03,0.30003,60,7.79E-06
612,118.373,4.58E-03,0.30003,60,7.79E-06
614,118.78,4.60E-03,0.29995,60,7.79E-06
616,119.188,4.61E-03,0.29996,60,7.79E-06
618,119.6,4.63E-03,0.30001,60,7.79E-06
620,120.0143,4.65E-03,0.29998,60,7.79E-06
622,120.429,4.66E-03,0.30002,60,7.79E-06
624,120.841,4.68E-03,0.29996,60,7.79E-06
626,121.248,4.69E-03,0.29997,60,7.79E-06
628,121.6541,4.70E-03,0.29996,60,7.78E-06
630,122.056,4.72E-03,0.30006,60,7.78E-06
632,122.457,4.73E-03,0.30006,60,7.78E-06
634,122.862,4.75E-03,0.29995,60,7.78E-06
636,123.271,4.76E-03,0.30001,60,7.78E-06
638,123.68,4.78E-03,0.3,60,7.78E-06
640,124.086,4.79E-03,0.29998,60,7.78E-06
642,124.492,4.81E-03,0.29997,60,7.78E-06
644,124.897,4.83E-03,0.29999,60,7.78E-06
646,125.3,4.84E-03,0.30003,60,7.78E-06
648,125.7,4.86E-03,0.30004,60,7.78E-06
650,126.097,4.87E-03,0.30004,60,7.78E-06
652,126.494,4.89E-03,0.30001,60,7.78E-06
654,126.895,4.90E-03,0.3001,60,7.77E-06
656,127.297,4.92E-03,0.3,60,7.77E-06
658,127.701,4.93E-03,0.29999,60,7.78E-06
660,128.1072,4.95E-03,0.29998,60,7.78E-06
662,128.519,4.97E-03,0.3,60,7.78E-06
664,128.932,4.98E-03,0.29995,60,7.78E-06
666,129.3416,5.00E-03,0.3,60,7.78E-06
668,129.7474,5.01E-03,0.30002,60,7.78E-06
670,130.153,5.03E-03,0.29998,60,7.78E-06
672,130.5656,5.04E-03,0.29999,60,7.78E-06
674,130.987,5.06E-03,0.3,60,7.78E-06
676,131.407,5.07E-03,0.29999,60,7.78E-06
678,131.824,5.09E-03,0.30004,60,7.78E-06
680,132.244,5.11E-03,0.30001,60,7.78E-06
682,132.667,5.12E-03,0.3,60,7.78E-06
684,133.087,5.13E-03,0.3,60,7.77E-06
686,133.502,5.15E-03,0.30001,60,7.77E-06
688,133.91,5.17E-03,0.29998,60,7.77E-06
690,134.314,5.18E-03,0.3,60,7.78E-06
692,134.718,5.20E-03,0.30004,60,7.77E-06
694,135.122,5.21E-03,0.30004,60,7.77E-06
696,135.527,5.23E-03,0.3,60,7.77E-06
698,135.933,5.24E-03,0.29996,60,7.77E-06
700,136.342,5.25E-03,0.29995,60,7.77E-06
702,136.749,5.27E-03,0.30001,60,7.77E-06
704,137.154,5.28E-03,0.30001,60,7.76E-06
706,137.551,5.30E-03,0.29999,60,7.76E-06
708,137.939,5.31E-03,0.30001,60,7.76E-06
710,138.3253,5.32E-03,0.30001,60,7.76E-06
712,138.718,5.34E-03,0.30002,60,7.75E-06
714,139.118,5.35E-03,0.30003,60,7.75E-06
716,139.522,5.37E-03,0.29999,60,7.75E-06
718,139.926,5.38E-03,0.30005,60,7.75E-06
720,140.328,5.39E-03,0.3,60,7.74E-06
722,140.727,5.41E-03,0.29996,60,7.74E-06
724,141.125,5.42E-03,0.30003,60,7.74E-06
726,141.523,5.43E-03,0.3,60,7.74E-06
728,141.921,5.45E-03,0.30005,60,7.73E-06
730,142.319,5.46E-03,0.29999,60,7.73E-06
732,142.713,5.48E-03,0.29998,60,7.73E-06
734,143.107,5.49E-03,0.30002,60,7.73E-06
736,143.502,5.50E-03,0.30001,60,7.72E-06
738,143.897,5.52E-03,0.30003,60,7.72E-06
740,144.291,5.53E-03,0.29994,60,7.72E-06
742,144.687,5.54E-03,0.29997,60,7.72E-06
744,145.084,5.56E-03,0.30002,60,7.72E-06
746,145.48,5.58E-03,0.3,60,7.72E-06
748,145.876,5.59E-03,0.29998,60,7.72E-06
750,146.271,5.61E-03,0.30004,60,7.72E-06
752,146.664,5.62E-03,0.29998,60,7.72E-06
754,147.052,5.64E-03,0.29996,60,7.72E-06
756,147.441,5.66E-03,0.3,60,7.72E-06
758,147.833,5.67E-03,0.29998,60,7.73E-06
760,148.232,5.69E-03,0.29997,60,7.73E-06
762,148.6371,5.71E-03,0.29997,60,7.73E-06
764,149.0436,5.73E-03,0.3,60,7.73E-06
766,149.447,5.75E-03,0.30002,60,7.74E-06
768,149.846,5.76E-03,0.29996,60,7.74E-06
770,150.241,5.78E-03,0.30003,60,7.74E-06
772,150.636,5.80E-03,0.30006,60,7.75E-06
774,151.0302,5.82E-03,0.29999,60,7.75E-06
776,151.423,5.84E-03,0.30003,60,7.75E-06
778,151.814,5.85E-03,0.29992,60,7.76E-06
780,152.206,5.88E-03,0.30001,60,7.77E-06
782,152.598,5.90E-03,0.30002,60,7.77E-06
784,152.992,5.92E-03,0.29998,60,7.78E-06
786,153.387,5.94E-03,0.3,60,7.79E-06
788,153.782,5.96E-03,0.30004,60,7.79E-06
790,154.1761,5.98E-03,0.29996,60,7.80E-06
792,154.57,6.00E-03,0.29999,60,7.81E-06
794,154.963,6.02E-03,0.30005,60,7.82E-06
796,155.36,6.04E-03,0.3,60,7.82E-06
798,155.756,6.06E-03,0.29994,60,7.83E-06
800,156.148,6.08E-03,0.3,60,7.84E-06
802,156.54,6.11E-03,0.30001,60,7.84E-06
804,156.934,6.13E-03,0.29998,60,7.85E-06
806,157.331,6.15E-03,0.29996,60,7.86E-06
808,157.73,6.17E-03,0.30003,60,7.87E-06
810,158.129,6.20E-03,0.30002,60,7.88E-06
812,158.526,6.22E-03,0.30001,60,7.89E-06
814,158.925,6.24E-03,0.29998,60,7.90E-06
816,159.327,6.26E-03,0.30001,60,7.91E-06
818,159.729,6.29E-03,0.30009,60,7.91E-06
820,160.131,6.31E-03,0.29988,60,7.92E-06
822,160.533,6.33E-03,0.3,60,7.93E-06
824,160.931,6.35E-03,0.29998,60,7.94E-06
826,161.325,6.37E-03,0.30002,60,7.94E-06
828,161.723,6.39E-03,0.30004,60,7.95E-06
830,162.127,6.42E-03,0.30003,60,7.96E-06
832,162.534,6.44E-03,0.29999,60,7.96E-06
834,162.939,6.46E-03,0.30005,60,7.97E-06
836,163.343,6.48E-03,0.30012,60,7.97E-06
838,163.74,6.49E-03,0.29997,60,7.98E-06
840,164.132,6.51E-03,0.29997,60,7.98E-06
842,164.521,6.54E-03,0.30001,60,7.99E-06
844,164.912,6.56E-03,0.3,60,7.99E-06
846,165.306,6.57E-03,0.30001,60,8.00E-06
848,165.701,6.60E-03,0.30001,60,8.00E-06
850,166.0961,6.62E-03,0.30009,60,8.01E-06
852,166.491,6.64E-03,0.3,60,8.02E-06
854,166.883,6.67E-03,0.30003,60,8.03E-06
856,167.275,6.69E-03,0.3,60,8.04E-06
858,167.668,6.71E-03,0.29999,60,8.04E-06
860,168.064,6.73E-03,0.30001,60,8.05E-06
862,168.461,6.75E-03,0.3,60,8.06E-06
864,168.858,6.77E-03,0.3,60,8.06E-06
866,169.255,6.79E-03,0.30002,60,8.07E-06
868,169.652,6.82E-03,0.30002,60,8.07E-06
870,170.048,6.84E-03,0.29997,60,8.08E-06
872,170.443,6.86E-03,0.29998,60,8.09E-06
874,170.838,6.88E-03,0.30003,60,8.09E-06
876,171.235,6.90E-03,0.30001,60,8.10E-06
878,171.636,6.93E-03,0.3,60,8.11E-06
880,172.038,6.95E-03,0.3,60,8.12E-06
882,172.442,6.97E-03,0.29997,60,8.13E-06
884,172.847,6.99E-03,0.29996,60,8.13E-06
886,173.254,7.01E-03,0.30003,60,8.13E-06
888,173.656,7.03E-03,0.29998,60,8.14E-06
890,174.054,7.05E-03,0.30002,60,8.14E-06
892,174.453,7.07E-03,0.3,60,8.14E-06
894,174.854,7.09E-03,0.29997,60,8.15E-06
896,175.258,7.11E-03,0.30001,60,8.15E-06
898,175.662,7.13E-03,0.30001,60,8.15E-06
900,176.061,7.14E-03,0.30003,60,8.15E-06
902,176.457,7.16E-03,0.3,60,8.16E-06
904,176.852,7.18E-03,0.30001,60,8.16E-06
906,177.245,7.20E-03,0.30003,60,8.17E-06
908,177.6383,7.22E-03,0.29996,60,8.17E-06
910,178.033,7.24E-03,0.29999,60,8.18E-06
912,178.431,7.27E-03,0.29999,60,8.18E-06
914,178.831,7.29E-03,0.29996,60,8.19E-06
916,179.229,7.31E-03,0.29998,60,8.19E-06
918,179.626,7.33E-03,0.29996,60,8.20E-06
920,180.023,7.35E-03,0.30004,60,8.20E-06
922,180.419,7.37E-03,0.29999,60,8.21E-06
924,180.814,7.39E-03,0.3,60,8.21E-06
926,181.211,7.41E-03,0.30001,60,8.22E-06
928,181.609,7.43E-03,0.3,60,8.22E-06
930,182.006,7.45E-03,0.29999,60,8.22E-06
932,182.403,7.47E-03,0.30003,60,8.22E-06
934,182.8,7.49E-03,0.29999,60,8.23E-06
936,183.194,7.51E-03,0.30001,60,8.23E-06
938,183.588,7.53E-03,0.29995,60,8.24E-06
940,183.987,7.55E-03,0.29998,60,8.24E-06
942,184.387,7.57E-03,0.29995,60,8.25E-06
944,184.79,7.59E-03,0.29996,60,8.25E-06
946,185.193,7.61E-03,0.3,60,8.26E-06
948,185.596,7.64E-03,0.3,60,8.26E-06
950,185.999,7.66E-03,0.3,60,8.27E-06
952,186.401,7.68E-03,0.30001,60,8.27E-06
954,186.804,7.70E-03,0.29998,60,8.28E-06
956,187.208,7.72E-03,0.30002,60,8.28E-06
958,187.61,7.74E-03,0.30001,60,8.29E-06
960,188.0114,7.76E-03,0.30004,60,8.29E-06
962,188.413,7.78E-03,0.30001,60,8.30E-06
964,188.812,7.81E-03,0.29997,60,8.30E-06
966,189.207,7.83E-03,0.30001,60,8.31E-06
968,189.603,7.85E-03,0.29998,60,8.32E-06
970,189.998,7.87E-03,0.30004,60,8.32E-06
972,190.396,7.89E-03,0.29996,60,8.33E-06
974,190.7939,7.91E-03,0.30002,60,8.33E-06
976,191.193,7.94E-03,0.30006,60,8.34E-06
978,191.5903,7.96E-03,0.30005,60,8.34E-06
980,191.985,7.98E-03,0.29999,60,8.35E-06
982,192.377,8.00E-03,0.29998,60,8.35E-06
984,192.772,8.02E-03,0.30004,60,8.36E-06
986,193.168,8.04E-03,0.3,60,8.36E-06
988,193.562,8.07E-03,0.30005,60,8.37E-06
990,193.95,8.09E-03,0.30004,60,8.37E-06
992,194.337,8.11E-03,0.3,60,8.38E-06
994,194.732,8.13E-03,0.30005,60,8.38E-06
996,195.132,8.16E-03,0.30002,60,8.39E-06
998,195.539,8.18E-03,0.29996,60,8.40E-06
1000,195.943,8.20E-03,0.30003,60,8.40E-06
1002,196.346,8.22E-03,0.3,60,8.40E-06
1004,196.75,8.24E-03,0.29999,60,8.41E-06
1006,197.154,8.26E-03,0.30004,60,8.41E-06
1008,197.5563,8.28E-03,0.3,60,8.42E-06
1010,197.959,8.30E-03,0.3,60,8.42E-06
1012,198.365,8.32E-03,0.3,60,8.43E-06
1014,198.7734,8.35E-03,0.30002,60,8.43E-06
1016,199.181,8.37E-03,0.29998,60,8.44E-06
1018,199.58,8.39E-03,0.29998,60,8.44E-06
1020,199.976,8.41E-03,0.29996,60,8.44E-06
1022,200.367,8.43E-03,0.3,60,8.45E-06
1024,200.758,8.45E-03,0.30003,60,8.45E-06
1026,201.1511,8.47E-03,0.30004,60,8.46E-06
1028,201.547,8.49E-03,0.30001,60,8.46E-06
1030,201.9468,8.51E-03,0.30004,60,8.46E-06
1032,202.346,8.54E-03,0.30001,60,8.47E-06
1034,202.744,8.56E-03,0.29993,60,8.47E-06
1036,203.142,8.58E-03,0.29999,60,8.48E-06
1038,203.537,8.60E-03,0.30008,60,8.48E-06
1040,203.929,8.62E-03,0.29999,60,8.49E-06
1042,204.322,8.64E-03,0.30001,60,8.49E-06
1044,204.7106,8.66E-03,0.29997,60,8.49E-06
1046,205.098,8.68E-03,0.29998,60,8.50E-06
1048,205.486,8.71E-03,0.3,60,8.50E-06
1050,205.88,8.73E-03,0.29995,60,8.51E-06
1052,206.277,8.75E-03,0.30001,60,8.51E-06
1054,206.678,8.77E-03,0.30003,60,8.51E-06
1056,207.08,8.79E-03,0.3,60,8.52E-06
1058,207.4864,8.81E-03,0.3,60,8.52E-06
1060,207.895,8.83E-03,0.29998,60,8.53E-06
1062,208.304,8.85E-03,0.30003,60,8.53E-06
1064,208.714,8.88E-03,0.30003,60,8.53E-06
1066,209.119,8.90E-03,0.29999,60,8.54E-06
1068,209.52,8.92E-03,0.29996,60,8.54E-06
1070,209.919,8.94E-03,0.30002,60,8.55E-06
1072,210.3198,8.96E-03,0.3,60,8.55E-06
1074,210.725,8.98E-03,0.3,60,8.56E-06
1076,211.129,9.01E-03,0.30002,60,8.56E-06
1078,211.5245,9.03E-03,0.29997,60,8.56E-06
1080,211.9197,9.05E-03,0.30002,60,8.57E-06
1082,212.317,9.07E-03,0.3,60,8.57E-06
1084,212.713,9.09E-03,0.3,60,8.58E-06
1086,213.108,9.11E-03,0.3,60,8.58E-06
1088,213.5,9.13E-03,0.29999,60,8.58E-06
1090,213.8897,9.15E-03,0.3,60,8.59E-06
1092,214.282,9.17E-03,0.3,60,8.59E-06
1094,214.676,9.20E-03,0.29999,60,8.60E-06
1096,215.07,9.22E-03,0.30002,60,8.60E-06
1098,215.465,9.24E-03,0.30002,60,8.60E-06
1100,215.859,9.26E-03,0.29998,60,8.60E-06
1102,216.2497,9.28E-03,0.3,60,8.61E-06
1104,216.64,9.30E-03,0.29999,60,8.61E-06
1106,217.034,9.31E-03,0.30002,60,8.61E-06
1108,217.433,9.33E-03,0.3,60,8.61E-06
1110,217.835,9.35E-03,0.29999,60,8.61E-06
1112,218.237,9.37E-03,0.29997,60,8.62E-06
1114,218.639,9.39E-03,0.29999,60,8.62E-06
1116,219.042,9.41E-03,0.30001,60,8.62E-06
1118,219.444,9.43E-03,0.30003,60,8.62E-06
1120,219.8459,9.45E-03,0.29999,60,8.63E-06
1122,220.253,9.47E-03,0.30003,60,8.63E-06
1124,220.656,9.49E-03,0.29996,60,8.63E-06
1126,221.055,9.51E-03,0.29999,60,8.63E-06
1128,221.46,9.53E-03,0.30005,60,8.63E-06
1130,221.862,9.54E-03,0.29999,60,8.63E-06
1132,222.262,9.56E-03,0.30002,60,8.63E-06
1134,222.6596,9.58E-03,0.3,60,8.63E-06
1136,223.053,9.60E-03,0.30002,60,8.63E-06
1138,223.447,9.61E-03,0.30002,60,8.63E-06
1140,223.843,9.63E-03,0.3,60,8.63E-06
1142,224.243,9.65E-03,0.29997,60,8.63E-06
1144,224.6438,9.67E-03,0.29997,60,8.63E-06
1146,225.038,9.68E-03,0.29999,60,8.63E-06
1148,225.432,9.70E-03,0.3,60,8.63E-06
1150,225.824,9.72E-03,0.29998,60,8.63E-06
1152,226.217,9.74E-03,0.3,60,8.63E-06
1154,226.613,9.75E-03,0.30007,60,8.63E-06
1156,227.013,9.77E-03,0.3,60,8.63E-06
1158,227.413,9.79E-03,0.29998,60,8.63E-06
1160,227.811,9.80E-03,0.29998,60,8.63E-06
1162,228.21,9.82E-03,0.3,60,8.63E-06
1164,228.603,9.84E-03,0.3,60,8.63E-06
1166,228.998,9.85E-03,0.30004,60,8.63E-06
1168,229.4,9.87E-03,0.3,60,8.63E-06
1170,229.81,9.88E-03,0.30002,60,8.63E-06
1172,230.231,9.90E-03,0.30002,60,8.62E-06
1174,230.644,9.91E-03,0.29997,60,8.62E-06
1176,231.048,9.93E-03,0.30001,60,8.62E-06
1178,231.449,9.94E-03,0.30002,60,8.62E-06
1180,231.853,9.96E-03,0.3,60,8.62E-06
1182,232.256,9.97E-03,0.3,60,8.61E-06
1184,232.6582,9.99E-03,0.3,60,8.61E-06
1186,233.058,1.00E-02,0.30002,60,8.61E-06
1188,233.456,1.00E-02,0.30001,60,8.61E-06
1190,233.845,1.00E-02,0.3,60,8.61E-06
1192,234.237,1.01E-02,0.29998,60,8.61E-06
1194,234.6341,1.01E-02,0.30001,60,8.60E-06
1196,235.029,1.01E-02,0.30001,60,8.60E-06
1198,235.415,1.01E-02,0.29989,60,8.60E-06
1200,235.811,1.01E-02,0.29997,60,8.60E-06
1202,236.215,1.01E-02,0.29999,60,8.60E-06
1204,236.621,1.01E-02,0.30004,60,8.60E-06
1206,237.014,1.02E-02,0.29999,60,8.59E-06
1208,237.405,1.02E-02,0.30002,60,8.59E-06
1210,237.803,1.02E-02,0.29999,60,8.59E-06
1212,238.191,1.02E-02,0.29998,60,8.59E-06
1214,238.559,1.02E-02,0.30001,60,8.59E-06
1216,238.925,1.02E-02,0.29996,60,8.59E-06
1218,239.327,1.03E-02,0.30001,60,8.59E-06
1220,239.764,1.03E-02,0.29999,60,8.59E-06
1222,240.199,1.03E-02,0.30002,60,8.59E-06
1224,240.592,1.03E-02,0.3,60,8.59E-06
1226,240.942,1.03E-02,0.30001,60,8.59E-06
1228,241.276,1.03E-02,0.29999,60,8.59E-06
1230,241.625,1.04E-02,0.30005,60,8.59E-06
1232,242.007,1.04E-02,0.29998,60,8.59E-06
1234,242.451,1.04E-02,0.29998,60,8.59E-06
1236,242.951,1.04E-02,0.30002,60,8.58E-06
1238,243.439,1.04E-02,0.3,60,8.58E-06
1240,243.871,1.04E-02,0.29997,60,8.57E-06
1242,244.264,1.04E-02,0.30003,60,8.57E-06
1244,244.6382,1.05E-02,0.30002,60,8.57E-06
1246,245.0134,1.05E-02,0.30001,60,8.57E-06
1248,245.405,1.05E-02,0.29995,60,8.57E-06
1250,245.81,1.05E-02,0.3,60,8.56E-06
1252,246.212,1.05E-02,0.30005,60,8.56E-06
1254,246.584,1.05E-02,0.3,60,8.56E-06
1256,246.911,1.05E-02,0.30003,60,8.56E-06
1258,247.2201,1.06E-02,0.30001,60,8.56E-06
1260,247.539,1.06E-02,0.3,60,8.56E-06
1262,247.892,1.06E-02,0.3,60,8.56E-06
1264,248.313,1.06E-02,0.3,60,8.56E-06
1266,248.87,1.06E-02,0.29998,60,8.55E-06
1268,249.396,1.06E-02,0.30004,60,8.54E-06
1270,249.801,1.06E-02,0.30001,60,8.53E-06
1272,250.133,1.06E-02,0.3,60,8.53E-06
1274,250.438,1.07E-02,0.3,60,8.53E-06
1276,250.745,1.07E-02,0.3,60,8.53E-06
1278,251.078,1.07E-02,0.29999,60,8.53E-06
1280,251.459,1.07E-02,0.29999,60,8.53E-06
1282,251.9268,1.07E-02,0.3,60,8.53E-06
1284,252.5014,1.07E-02,0.29999,60,8.52E-06
1286,253.039,1.07E-02,0.29998,60,8.51E-06
1288,253.465,1.07E-02,0.29996,60,8.50E-06
1290,253.805,1.08E-02,0.29999,60,8.49E-06
1292,254.102,1.08E-02,0.3,60,8.49E-06
1294,254.3947,1.08E-02,0.29999,60,8.49E-06
1296,254.71,1.08E-02,0.3,60,8.49E-06
1298,255.075,1.08E-02,0.30001,60,8.49E-06
1300,255.53,1.08E-02,0.3,60,8.48E-06
1302,256.119,1.08E-02,0.3,60,8.46E-06
1304,256.7,1.08E-02,0.3,60,8.45E-06
1306,257.146,1.08E-02,0.29998,60,8.44E-06
1308,257.482,1.08E-02,0.30002,60,8.43E-06
1310,257.772,1.08E-02,0.29999,60,8.43E-06
1312,258.052,1.09E-02,0.30001,60,8.43E-06
1314,258.346,1.09E-02,0.3,60,8.42E-06
1316,258.672,1.09E-02,0.3,60,8.42E-06
1318,259.053,1.09E-02,0.30001,60,8.41E-06
1320,259.536,1.09E-02,0.30002,60,8.40E-06
1322,260.0928,1.09E-02,0.3,60,8.38E-06
1324,260.592,1.09E-02,0.29998,60,8.38E-06
1326,260.996,1.09E-02,0.30002,60,8.37E-06
1328,261.314,1.09E-02,0.30004,60,8.37E-06
1330,261.602,1.09E-02,0.29998,60,8.37E-06
1332,261.895,1.09E-02,0.3,60,8.37E-06
1334,262.216,1.10E-02,0.29999,60,8.37E-06
1336,262.578,1.10E-02,0.30001,60,8.37E-06
1338,262.992,1.10E-02,0.30001,60,8.37E-06
1340,263.475,1.10E-02,0.30001,60,8.36E-06
1342,264.016,1.10E-02,0.30002,60,8.35E-06
1344,264.5466,1.10E-02,0.29999,60,8.35E-06
1346,264.982,1.10E-02,0.29999,60,8.34E-06
1348,265.325,1.10E-02,0.30011,60,8.34E-06
1350,265.622,1.11E-02,0.30001,60,8.34E-06
1352,265.917,1.11E-02,0.3,60,8.34E-06
1354,266.235,1.11E-02,0.30001,60,8.34E-06
1356,266.5974,1.11E-02,0.29999,60,8.34E-06
1358,267.018,1.11E-02,0.30001,60,8.34E-06
1360,267.49,1.11E-02,0.29999,60,8.33E-06
1362,267.998,1.11E-02,0.3,60,8.33E-06
1364,268.503,1.12E-02,0.29999,60,8.32E-06
1366,268.952,1.12E-02,0.30002,60,8.32E-06
1368,269.335,1.12E-02,0.30001,60,8.31E-06
1370,269.666,1.12E-02,0.3,60,8.31E-06
1372,269.9805,1.12E-02,0.30001,60,8.31E-06
1374,270.303,1.12E-02,0.3,60,8.31E-06
1376,270.654,1.12E-02,0.3,60,8.31E-06
1378,271.043,1.13E-02,0.30003,60,8.31E-06
1380,271.4733,1.13E-02,0.3,60,8.31E-06
1382,271.917,1.13E-02,0.30001,60,8.31E-06
1384,272.36,1.13E-02,0.30002,60,8.30E-06
1386,272.771,1.13E-02,0.29998,60,8.30E-06
1388,273.155,1.13E-02,0.30001,60,8.30E-06
1390,273.521,1.13E-02,0.3,60,8.30E-06
1392,273.883,1.14E-02,0.29998,60,8.30E-06
1394,274.259,1.14E-02,0.30002,60,8.30E-06
1396,274.656,1.14E-02,0.29998,60,8.30E-06
1398,275.071,1.14E-02,0.29999,60,8.29E-06
1400,275.495,1.14E-02,0.29999,60,8.29E-06