File: 李院长 MgO-C C15-基 1400-200 @ S2-2.csv
#EXPORTTYPE:       ,DATA ALL
#FILE:             ,李院长 MgO-C C15-骨 C15-基 1400.ngb-dl9
#FORMAT:           ,NETZSCH5
#FTYPE:            ,ANSI
#IDENTITY:         ,C15-基
#DECIMAL:          ,POINT
#SEPARATOR:        ,COMMA
#MTYPE:            ,DIL
#INSTRUMENT:       ,NETZSCH DIL 402SU
#PROJECT:          ,123
#DATE/TIME:        ,2025/6/5 17:20:27 (UTC+8)
#CORR. FILE:       ,石墨炉 1400度-1.ngb-cl9
#TEMPCAL:          ,TCALZERO.TMX
#LABORATORY:       ,wust
#OPERATOR:         ,
#REMARK:           ,
#SAMPLE:           ,镁碳
#SAMPLE LENGTH /mm:,25.68
#MATERIAL:         ,镁碳
#MEASMODE:         ,Standard Expansion
#M.RANGE /μm:      ,50000
#CORR. CODE:       ,080
#RANGE:            ,1403°C/5.0(K/min)/200°C
#SEGMENT:          ,S2/2
#SEG. 2:           ,1403°C/5.0(K/min)/200°C
#Tref:             ,210.0°C

##Temp./°C,Time/min,dL/Lo,Force/N,Gas Flow(protective)/(ml/min),m. CTE(2)/(1/K)
 201.07,516.183,-2.986154e-004,0.29999,60.00000,4.955325e-006
 203.07,515.78,-2.879581e-004,0.29998,60.00000,4.850903e-006
 205.07,515.371,-2.783778e-004,0.30000,60.00000,4.776379e-006
 207.07,514.969,-2.679378e-004,0.29999,60.00000,4.685646e-006
 209.07,514.582,-2.584043e-004,0.30000,60.00000,4.598539e-006
 211.07,514.204,-2.494022e-004,0.30001,60.00000,4.513275e-006
 213.07,513.82,-2.411878e-004,0.30003,60.00000,4.426951e-006
 215.07,513.423,-2.323405e-004,0.29998,60.00000,4.337591e-006
 217.07,513.014,-2.235458e-004,0.30000,60.00000,4.359981e-006
 219.07,512.612,-2.126745e-004,0.30000,60.00000,4.597111e-006
 221.07,512.225,-2.023069e-004,0.30000,60.00000,4.703243e-006
 223.07,511.848,-1.926113e-004,0.29998,60.00000,4.724422e-006
 225.07,511.464,-1.835836e-004,0.30000,60.00000,4.694862e-006
 227.07,511.063,-1.746419e-004,0.30002,60.00000,4.669158e-006
 229.07,510.651,-1.640523e-004,0.29999,60.00000,4.736103e-006
 231.07,510.248,-1.522534e-004,0.30000,60.00000,4.847463e-006
 233.07,509.861,-1.407525e-004,0.30000,60.00000,4.926090e-006
 235.07,509.481,-1.298693e-004,0.29996,60.00000,4.965260e-006
 237.07,509.093,-1.192911e-004,0.30002,60.00000,4.988844e-006
 239.07,508.689,-1.087963e-004,0.29999,60.00000,5.007705e-006
 241.07,508.279,-9.678143e-005,0.30001,60.00000,5.071929e-006
 243.07,507.881,-8.532736e-005,0.30001,60.00000,5.112045e-006
 245.07,507.497,-7.420962e-005,0.30000,60.00000,5.136466e-006
 247.07,507.115,-6.532444e-005,0.30003,60.00000,5.099456e-006
 249.07,506.724,-5.524983e-005,0.30002,60.00000,5.096515e-006
 251.07,506.323,-4.451399e-005,0.29999,60.00000,5.109605e-006
 253.07,505.921,-3.503257e-005,0.29999,60.00000,5.092771e-006
 255.07,505.528,-2.523218e-005,0.29999,60.00000,5.084173e-006
 257.07,505.141,-1.585214e-005,0.30000,60.00000,5.067327e-006
 259.07,504.75,-5.145953e-006,0.30001,60.00000,5.078511e-006
 261.07,504.353, 6.270905e-006,0.30000,60.00000,5.103644e-006
 263.07,503.953, 1.836260e-005,0.30000,60.00000,5.139243e-006
 265.07,503.561, 3.010377e-005,0.30001,60.00000,5.165637e-006
 267.07,503.174, 4.078385e-005,0.30005,60.00000,5.171705e-006
 269.07,502.784, 5.198791e-005,0.30000,60.00000,5.186020e-006
 271.07,502.385, 6.437606e-005,0.30001,60.00000,5.218961e-006
 273.07,501.983, 7.614567e-005,0.30000,60.00000,5.240556e-006
 275.07,501.587, 8.676802e-005,0.30002,60.00000,5.242317e-006
 277.07,501.198, 9.597435e-005,0.30000,60.00000,5.223427e-006
 279.07,500.81, 1.065090e-004,0.30000,60.00000,5.224401e-006
 281.07,500.415, 1.179455e-004,0.29998,60.00000,5.238800e-006
 283.07,500.014, 1.291700e-004,0.30000,60.00000,5.249085e-006
 285.07,499.612, 1.415606e-004,0.30001,60.00000,5.274143e-006
 287.07,499.216, 1.530060e-004,0.29999,60.00000,5.286217e-006
 289.07,498.827, 1.649619e-004,0.29998,60.00000,5.303438e-006
 291.07,498.441, 1.748898e-004,0.30000,60.00000,5.295061e-006
 293.07,498.054, 1.864417e-004,0.29999,60.00000,5.306502e-006
 295.07,497.664, 1.987031e-004,0.30001,60.00000,5.326168e-006
 297.07,497.27, 2.104977e-004,0.29998,60.00000,5.338786e-006
 299.07,496.872, 2.227817e-004,0.29997,60.00000,5.356916e-006
 301.07,496.477, 2.352936e-004,0.30000,60.00000,5.376841e-006
 303.07,496.087, 2.472720e-004,0.30001,60.00000,5.390005e-006
 305.07,495.702, 2.582846e-004,0.29998,60.00000,5.392425e-006
 307.07,495.32, 2.696275e-004,0.29999,60.00000,5.398194e-006
 309.07,494.936, 2.795386e-004,0.30000,60.00000,5.389163e-006
 311.07,494.548, 2.905491e-004,0.30001,60.00000,5.391442e-006
 313.07,494.154, 3.020219e-004,0.29996,60.00000,5.397869e-006
 315.07,493.757, 3.130398e-004,0.30003,60.00000,5.400493e-006
 317.07,493.363, 3.253243e-004,0.29998,60.00000,5.414205e-006
 319.07,492.973, 3.375746e-004,0.30003,60.00000,5.427059e-006
 321.07,492.587, 3.498443e-004,0.30001,60.00000,5.439868e-006
 323.07,492.203, 3.613691e-004,0.29999,60.00000,5.445389e-006
 325.07,491.816, 3.737636e-004,0.30002,60.00000,5.458498e-006
 327.07,491.421, 3.856396e-004,0.29996,60.00000,5.466769e-006
 329.07,491.021, 3.981006e-004,0.30000,60.00000,5.479755e-006
 331.07,490.62, 4.100683e-004,0.29999,60.00000,5.488115e-006
 333.07,490.225, 4.232464e-004,0.30001,60.00000,5.506061e-006
 335.07,489.837, 4.360776e-004,0.30001,60.00000,5.520393e-006
 337.07,489.45, 4.492327e-004,0.30000,60.00000,5.536890e-006
 339.07,489.062, 4.622568e-004,0.30001,60.00000,5.552062e-006
 341.07,488.667, 4.726982e-004,0.30000,60.00000,5.546881e-006
 343.07,488.269, 4.851899e-004,0.30002,60.00000,5.557418e-006
 345.07,487.87, 4.965145e-004,0.29999,60.00000,5.559442e-006
 347.07,487.476, 5.095197e-004,0.30000,60.00000,5.573101e-006
 349.07,487.087, 5.221541e-004,0.29999,60.00000,5.583815e-006
 351.07,486.697, 5.348867e-004,0.29999,60.00000,5.594749e-006
 353.07,486.305, 5.473758e-004,0.30000,60.00000,5.603658e-006
 355.07,485.91, 5.576577e-004,0.30001,60.00000,5.597563e-006
 357.07,485.513, 5.694913e-004,0.30003,60.00000,5.601742e-006
 359.07,485.117, 5.814713e-004,0.29999,60.00000,5.606981e-006
 361.07,484.722, 5.932887e-004,0.29998,60.00000,5.610994e-006
 363.07,484.328, 6.060731e-004,0.29997,60.00000,5.621133e-006
 365.07,483.935, 6.180803e-004,0.29999,60.00000,5.626112e-006
 367.07,483.542, 6.303057e-004,0.29998,60.00000,5.632220e-006
 369.07,483.148, 6.433352e-004,0.29999,60.00000,5.643495e-006
 371.07,482.756, 6.566098e-004,0.29998,60.00000,5.655711e-006
 373.07,482.363, 6.700697e-004,0.30001,60.00000,5.668981e-006
 375.07,481.972, 6.836187e-004,0.29998,60.00000,5.682342e-006
 377.07,481.582, 6.941500e-004,0.29998,60.00000,5.677413e-006
 379.07,481.193, 7.072675e-004,0.30000,60.00000,5.687799e-006
 381.07,480.804, 7.196633e-004,0.30001,60.00000,5.693798e-006
 383.07,480.416, 7.320956e-004,0.30000,60.00000,5.699770e-006
 385.07,480.026, 7.449611e-004,0.29998,60.00000,5.708029e-006
 387.07,479.634, 7.566341e-004,0.30001,60.00000,5.709588e-006
 389.07,479.244, 7.692142e-004,0.30002,60.00000,5.716132e-006
 391.07,478.854, 7.821384e-004,0.29998,60.00000,5.724572e-006
 393.07,478.466, 7.951604e-004,0.30000,60.00000,5.732814e-006
 395.07,478.077, 8.074417e-004,0.30000,60.00000,5.737327e-006
 397.07,477.686, 8.197044e-004,0.29999,60.00000,5.741496e-006
 399.07,477.293, 8.327111e-004,0.29998,60.00000,5.749618e-006
 401.07,476.9, 8.456033e-004,0.29999,60.00000,5.757032e-006
 403.07,476.508, 8.592062e-004,0.30000,60.00000,5.767683e-006
 405.07,476.115, 8.723932e-004,0.29997,60.00000,5.776150e-006
 407.07,475.724, 8.850406e-004,0.29997,60.00000,5.781692e-006
 409.07,475.334, 8.979428e-004,0.29999,60.00000,5.788453e-006
 411.07,474.944, 9.110707e-004,0.29998,60.00000,5.796156e-006
 413.07,474.554, 9.248346e-004,0.29998,60.00000,5.806839e-006
 415.07,474.163, 9.382976e-004,0.30001,60.00000,5.815812e-006
 417.07,473.768, 9.499534e-004,0.30002,60.00000,5.815923e-006
 419.07,473.373, 9.616856e-004,0.30002,60.00000,5.816521e-006
 421.07,472.979, 9.733593e-004,0.30002,60.00000,5.816673e-006
 423.07,472.586, 9.867773e-004,0.30000,60.00000,5.824930e-006
 425.07,472.195, 1.000278e-003,0.30002,60.00000,5.833664e-006
 427.07,471.803, 1.013687e-003,0.30002,60.00000,5.841707e-006
 429.07,471.409, 1.027622e-003,0.30004,60.00000,5.851815e-006
 431.07,471.012, 1.041931e-003,0.30002,60.00000,5.863778e-006
 433.07,470.613, 1.056512e-003,0.30001,60.00000,5.876526e-006
 435.07,470.217, 1.071063e-003,0.30002,60.00000,5.888938e-006
 437.07,469.822, 1.085012e-003,0.30003,60.00000,5.898562e-006
 439.07,469.43, 1.099378e-003,0.30002,60.00000,5.909717e-006
 441.07,469.035, 1.113056e-003,0.30000,60.00000,5.917876e-006
 443.07,468.638, 1.127628e-003,0.29999,60.00000,5.929544e-006
 445.07,468.239, 1.141920e-003,0.29997,60.00000,5.939797e-006
 447.07,467.841, 1.156164e-003,0.30001,60.00000,5.949880e-006
 449.07,467.447, 1.170132e-003,0.30000,60.00000,5.958480e-006
 451.07,467.056, 1.182776e-003,0.30001,60.00000,5.961568e-006
 453.07,466.667, 1.196089e-003,0.30003,60.00000,5.967275e-006
 455.07,466.278, 1.210335e-003,0.29999,60.00000,5.976587e-006
 457.07,465.89, 1.222676e-003,0.29999,60.00000,5.978275e-006
 459.07,465.5, 1.236508e-003,0.30002,60.00000,5.985719e-006
 461.07,465.111, 1.249464e-003,0.29997,60.00000,5.989786e-006
 463.07,464.72, 1.263714e-003,0.29999,60.00000,5.998492e-006
 465.07,464.328, 1.277523e-003,0.29999,60.00000,6.005809e-006
 467.07,463.937, 1.290993e-003,0.29996,60.00000,6.011407e-006
 469.07,463.545, 1.305090e-003,0.29999,60.00000,6.019543e-006
 471.07,463.153, 1.319776e-003,0.29997,60.00000,6.029592e-006
 473.07,462.762, 1.334161e-003,0.29998,60.00000,6.038476e-006
 475.07,462.371, 1.348715e-003,0.30000,60.00000,6.047820e-006
 477.07,461.981, 1.363594e-003,0.30001,60.00000,6.058086e-006
 479.07,461.588, 1.378161e-003,0.30002,60.00000,6.067246e-006
 481.07,461.194, 1.390130e-003,0.29997,60.00000,6.066759e-006
 483.07,460.797, 1.404926e-003,0.30000,60.00000,6.076466e-006
 485.07,460.4, 1.419723e-003,0.30000,60.00000,6.086102e-006
 487.07,460.005, 1.434059e-003,0.29999,60.00000,6.093815e-006
 489.07,459.612, 1.448191e-003,0.30001,60.00000,6.100788e-006
 491.07,459.219, 1.461592e-003,0.29998,60.00000,6.105096e-006
 493.07,458.826, 1.475470e-003,0.30001,60.00000,6.110972e-006
 495.07,458.429, 1.489603e-003,0.30000,60.00000,6.117647e-006
 497.07,458.03, 1.504226e-003,0.30002,60.00000,6.126033e-006
 499.07,457.632, 1.518995e-003,0.29999,60.00000,6.134749e-006
 501.07,457.235, 1.533058e-003,0.29998,60.00000,6.140896e-006
 503.07,456.84, 1.547951e-003,0.29998,60.00000,6.149772e-006
 505.07,456.445, 1.562381e-003,0.29999,60.00000,6.156994e-006
 507.07,456.048, 1.576904e-003,0.29998,60.00000,6.164445e-006
 509.07,455.651, 1.590408e-003,0.30000,60.00000,6.168302e-006
 511.07,455.251, 1.604131e-003,0.29999,60.00000,6.172933e-006
 513.07,454.85, 1.619247e-003,0.29999,60.00000,6.182119e-006
 515.07,454.451, 1.634462e-003,0.30003,60.00000,6.191501e-006
 517.07,454.054, 1.649261e-003,0.29999,60.00000,6.199398e-006
 519.07,453.658, 1.664376e-003,0.30000,60.00000,6.208094e-006
 521.07,453.262, 1.678710e-003,0.30004,60.00000,6.214267e-006
 523.07,452.865, 1.693020e-003,0.29996,60.00000,6.220296e-006
 525.07,452.466, 1.707559e-003,0.30000,60.00000,6.226863e-006
 527.07,452.065, 1.721888e-003,0.30000,60.00000,6.232885e-006
 529.07,451.667, 1.736000e-003,0.30000,60.00000,6.238036e-006
 531.07,451.274, 1.750180e-003,0.30002,60.00000,6.243385e-006
 533.07,450.885, 1.764626e-003,0.29999,60.00000,6.249342e-006
 535.07,450.495, 1.779097e-003,0.30000,60.00000,6.255445e-006
 537.07,450.101, 1.794240e-003,0.30000,60.00000,6.263480e-006
 539.07,449.703, 1.809358e-003,0.29999,60.00000,6.271357e-006
 541.07,449.303, 1.824354e-003,0.30000,60.00000,6.278795e-006
 543.07,448.903, 1.840027e-003,0.30000,60.00000,6.288148e-006
 545.07,448.507, 1.855911e-003,0.29999,60.00000,6.298041e-006
 547.07,448.112, 1.871840e-003,0.30000,60.00000,6.307862e-006
 549.07,447.716, 1.884361e-003,0.29998,60.00000,6.307548e-006
 551.07,447.319, 1.899074e-003,0.30000,60.00000,6.313790e-006
 553.07,446.92, 1.914299e-003,0.30001,60.00000,6.321246e-006
 555.07,446.517, 1.927059e-003,0.30001,60.00000,6.321652e-006
 557.07,446.114, 1.942472e-003,0.30000,60.00000,6.329758e-006
 559.07,445.711, 1.957960e-003,0.30000,60.00000,6.337748e-006
 561.07,445.308, 1.971397e-003,0.30000,60.00000,6.339908e-006
 563.07,444.909, 1.986299e-003,0.29999,60.00000,6.346279e-006
 565.07,444.51, 2.000642e-003,0.30002,60.00000,6.350805e-006
 567.07,444.108, 2.013831e-003,0.30000,60.00000,6.352282e-006
 569.07,443.704, 2.028401e-003,0.29999,60.00000,6.357397e-006
 571.07,443.3, 2.043657e-003,0.30001,60.00000,6.364506e-006
 573.07,442.894, 2.059510e-003,0.29998,60.00000,6.372999e-006
 575.07,442.491, 2.075851e-003,0.30000,60.00000,6.382942e-006
 577.07,442.091, 2.091965e-003,0.29999,60.00000,6.392051e-006
 579.07,441.688, 2.107492e-003,0.29998,60.00000,6.399474e-006
 581.07,441.283, 2.121175e-003,0.30001,60.00000,6.401875e-006
 583.07,440.876, 2.137737e-003,0.30000,60.00000,6.411863e-006
 585.07,440.467, 2.153483e-003,0.30002,60.00000,6.419770e-006
 587.07,440.058, 2.169783e-003,0.30000,60.00000,6.428875e-006
 589.07,439.654, 2.185636e-003,0.30002,60.00000,6.436845e-006
 591.07,439.255, 2.202264e-003,0.29999,60.00000,6.446589e-006
 593.07,438.859, 2.218342e-003,0.29995,60.00000,6.454983e-006
 595.07,438.464, 2.234425e-003,0.29996,60.00000,6.463230e-006
 597.07,438.068, 2.249425e-003,0.29997,60.00000,6.468571e-006
 599.07,437.67, 2.262796e-003,0.29999,60.00000,6.469732e-006
 601.07,437.271, 2.278340e-003,0.30000,60.00000,6.476316e-006
 603.07,436.872, 2.293411e-003,0.29999,60.00000,6.481793e-006
 605.07,436.472, 2.308753e-003,0.29998,60.00000,6.487757e-006
 607.07,436.073, 2.323881e-003,0.30000,60.00000,6.493157e-006
 609.07,435.674, 2.337912e-003,0.30000,60.00000,6.495715e-006
 611.07,435.272, 2.353342e-003,0.29998,60.00000,6.501763e-006
 613.07,434.866, 2.369002e-003,0.30000,60.00000,6.508400e-006
 615.07,434.459, 2.385448e-003,0.29999,60.00000,6.516921e-006
 617.07,434.053, 2.401211e-003,0.30000,60.00000,6.523630e-006
 619.07,433.647, 2.409888e-003,0.30000,60.00000,6.512961e-006
 621.07,433.24, 2.426920e-003,0.29999,60.00000,6.522687e-006
 623.07,432.832, 2.444657e-003,0.29999,60.00000,6.534057e-006
 625.07,432.426, 2.462275e-003,0.30001,60.00000,6.545020e-006
 627.07,432.024, 2.478556e-003,0.30002,60.00000,6.552703e-006
 629.07,431.625, 2.496456e-003,0.30000,60.00000,6.564111e-006
 631.07,431.226, 2.513748e-003,0.30001,60.00000,6.573974e-006
 633.07,430.826, 2.530865e-003,0.29998,60.00000,6.583419e-006
 635.07,430.426, 2.547683e-003,0.29999,60.00000,6.591985e-006
 637.07,430.025, 2.564478e-003,0.29999,60.00000,6.600415e-006
 639.07,429.622, 2.580826e-003,0.30000,60.00000,6.607793e-006
 641.07,429.219, 2.597428e-003,0.30000,60.00000,6.615607e-006
 643.07,428.814, 2.613165e-003,0.30001,60.00000,6.621369e-006
 645.07,428.407, 2.628749e-003,0.30000,60.00000,6.626835e-006
 647.07,428.002, 2.645870e-003,0.29998,60.00000,6.635610e-006
 649.07,427.596, 2.663009e-003,0.30000,60.00000,6.644512e-006
 651.07,427.194, 2.679885e-003,0.30000,60.00000,6.652573e-006
 653.07,426.796, 2.697432e-003,0.30002,60.00000,6.662138e-006
 655.07,426.4, 2.714490e-003,0.30000,60.00000,6.670559e-006
 657.07,426.002, 2.729322e-003,0.29999,60.00000,6.673829e-006
 659.07,425.603, 2.745911e-003,0.30000,60.00000,6.681107e-006
 661.07,425.204, 2.763179e-003,0.30002,60.00000,6.689751e-006
 663.07,424.804, 2.780212e-003,0.29997,60.00000,6.697818e-006
 665.07,424.402, 2.796069e-003,0.29999,60.00000,6.703250e-006
 667.07,424.002, 2.813006e-003,0.30000,60.00000,6.710959e-006
 669.07,423.603, 2.830173e-003,0.29999,60.00000,6.719108e-006
 671.07,423.205, 2.846863e-003,0.30000,60.00000,6.726171e-006
 673.07,422.807, 2.863614e-003,0.29997,60.00000,6.733270e-006
 675.07,422.409, 2.880559e-003,0.30001,60.00000,6.740709e-006
 677.07,422.006, 2.897155e-003,0.29998,60.00000,6.747426e-006
 679.07,421.603, 2.913976e-003,0.29997,60.00000,6.754474e-006
 681.07,421.201, 2.931473e-003,0.30000,60.00000,6.762960e-006
 683.07,420.801, 2.948232e-003,0.30000,60.00000,6.769846e-006
 685.07,420.403, 2.965163e-003,0.29999,60.00000,6.776990e-006
 687.07,420.009, 2.983830e-003,0.29999,60.00000,6.787667e-006
 689.07,419.614, 3.002341e-003,0.30001,60.00000,6.797931e-006
 691.07,419.217, 3.020754e-003,0.30001,60.00000,6.807984e-006
 693.07,418.817, 3.038586e-003,0.29998,60.00000,6.816711e-006
 695.07,418.416, 3.049705e-003,0.29999,60.00000,6.811534e-006
 697.07,418.013, 3.066808e-003,0.29999,60.00000,6.818704e-006
 699.07,417.609, 3.077632e-003,0.30000,60.00000,6.812941e-006
 701.07,417.204, 3.095709e-003,0.30002,60.00000,6.822026e-006
 703.07,416.799, 3.113785e-003,0.30000,60.00000,6.830996e-006
 705.07,416.396, 3.131656e-003,0.29999,60.00000,6.839457e-006
 707.07,415.994, 3.148780e-003,0.30001,60.00000,6.846446e-006
 709.07,415.591, 3.165905e-003,0.29998,60.00000,6.853298e-006
 711.07,415.187, 3.183173e-003,0.30001,60.00000,6.860368e-006
 713.07,414.784, 3.200274e-003,0.29998,60.00000,6.867112e-006
 715.07,414.381, 3.218969e-003,0.29998,60.00000,6.876926e-006
 717.07,413.979, 3.240253e-003,0.30001,60.00000,6.891835e-006
 719.07,413.575, 3.258783e-003,0.29999,60.00000,6.901109e-006
 721.07,413.173, 3.274447e-003,0.29997,60.00000,6.904735e-006
 723.07,412.772, 3.291989e-003,0.30001,60.00000,6.911982e-006
 725.07,412.374, 3.308722e-003,0.30000,60.00000,6.917702e-006
 727.07,411.977, 3.327456e-003,0.30000,60.00000,6.927163e-006
 729.07,411.581, 3.345881e-003,0.30001,60.00000,6.935954e-006
 731.07,411.185, 3.363677e-003,0.29999,60.00000,6.943473e-006
 733.07,410.788, 3.380859e-003,0.30000,60.00000,6.949725e-006
 735.07,410.388, 3.399061e-003,0.29998,60.00000,6.957914e-006
 737.07,409.986, 3.417241e-003,0.29998,60.00000,6.966067e-006
 739.07,409.585, 3.435431e-003,0.29999,60.00000,6.974103e-006
 741.07,409.184, 3.453166e-003,0.30000,60.00000,6.981232e-006
 743.07,408.785, 3.470711e-003,0.29998,60.00000,6.988008e-006
 745.07,408.388, 3.488345e-003,0.30001,60.00000,6.994813e-006
 747.07,407.988, 3.506366e-003,0.30001,60.00000,7.002335e-006
 749.07,407.587, 3.525208e-003,0.30001,60.00000,7.011302e-006
 751.07,407.185, 3.544193e-003,0.30000,60.00000,7.020435e-006
 753.07,406.782, 3.563648e-003,0.30002,60.00000,7.030397e-006
 755.07,406.379, 3.582459e-003,0.29998,60.00000,7.039130e-006
 757.07,405.977, 3.601983e-003,0.29997,60.00000,7.049072e-006
 759.07,405.575, 3.621480e-003,0.30000,60.00000,7.058921e-006
 761.07,405.172, 3.641044e-003,0.29997,60.00000,7.068844e-006
 763.07,404.769, 3.660675e-003,0.30000,60.00000,7.078712e-006
 765.07,404.365, 3.678795e-003,0.30000,60.00000,7.085850e-006
 767.07,403.961, 3.698154e-003,0.29999,60.00000,7.095180e-006
 769.07,403.555, 3.717083e-003,0.30000,60.00000,7.103662e-006
 771.07,403.149, 3.736156e-003,0.30000,60.00000,7.112379e-006
 773.07,402.743, 3.754675e-003,0.29998,60.00000,7.119975e-006
 775.07,402.338, 3.773494e-003,0.30002,60.00000,7.128101e-006
 777.07,401.936, 3.792822e-003,0.30000,60.00000,7.137003e-006
 779.07,401.531, 3.811529e-003,0.29999,60.00000,7.144818e-006
 781.07,401.125, 3.829706e-003,0.30000,60.00000,7.151645e-006
 783.07,400.723, 3.848348e-003,0.30001,60.00000,7.159210e-006
 785.07,400.322, 3.865972e-003,0.29999,60.00000,7.164950e-006
 787.07,399.923, 3.882534e-003,0.29998,60.00000,7.168753e-006
 789.07,399.524, 3.900570e-003,0.29997,60.00000,7.175198e-006
 791.07,399.126, 3.919596e-003,0.29996,60.00000,7.183211e-006
 793.07,398.727, 3.938454e-003,0.30000,60.00000,7.190979e-006
 795.07,398.327, 3.957175e-003,0.30001,60.00000,7.198375e-006
 797.07,397.929, 3.974571e-003,0.30000,60.00000,7.203453e-006
 799.07,397.532, 3.993139e-003,0.30000,60.00000,7.210532e-006
 801.07,397.131, 4.011180e-003,0.29998,60.00000,7.216635e-006
 803.07,396.73, 4.029957e-003,0.30000,60.00000,7.223967e-006
 805.07,396.329, 4.049101e-003,0.29998,60.00000,7.231807e-006
 807.07,395.928, 4.068548e-003,0.30000,60.00000,7.240202e-006
 809.07,395.527, 4.087708e-003,0.29998,60.00000,7.248012e-006
 811.07,395.12, 4.107242e-003,0.29999,60.00000,7.256369e-006
 813.07,394.71, 4.126555e-003,0.29998,60.00000,7.264346e-006
 815.07,394.304, 4.145625e-003,0.30002,60.00000,7.271902e-006
 817.07,393.898, 4.165100e-003,0.30000,60.00000,7.280032e-006
 819.07,393.496, 4.183261e-003,0.30000,60.00000,7.285936e-006
 821.07,393.095, 4.202182e-003,0.30001,60.00000,7.293021e-006
 823.07,392.693, 4.220943e-003,0.30001,60.00000,7.299830e-006
 825.07,392.288, 4.240315e-003,0.29999,60.00000,7.307521e-006
 827.07,391.883, 4.259112e-003,0.30000,60.00000,7.314392e-006
 829.07,391.48, 4.278127e-003,0.30001,60.00000,7.321445e-006
 831.07,391.077, 4.297014e-003,0.30000,60.00000,7.328314e-006
 833.07,390.674, 4.316070e-003,0.30000,60.00000,7.335370e-006
 835.07,390.271, 4.335615e-003,0.30000,60.00000,7.343159e-006
 837.07,389.867, 4.355175e-003,0.30001,60.00000,7.350921e-006
 839.07,389.466, 4.374549e-003,0.30002,60.00000,7.358376e-006
 841.07,389.065, 4.393919e-003,0.30000,60.00000,7.365712e-006
 843.07,388.665, 4.413387e-003,0.29999,60.00000,7.373169e-006
 845.07,388.263, 4.432768e-003,0.30001,60.00000,7.380498e-006
 847.07,387.862, 4.452583e-003,0.30001,60.00000,7.388468e-006
 849.07,387.464, 4.472348e-003,0.29999,60.00000,7.396227e-006
 851.07,387.067, 4.491281e-003,0.29999,60.00000,7.402705e-006
 853.07,386.672, 4.510556e-003,0.30004,60.00000,7.409652e-006
 855.07,386.275, 4.529574e-003,0.30000,60.00000,7.416177e-006
 857.07,385.877, 4.548853e-003,0.30000,60.00000,7.423025e-006
 859.07,385.478, 4.567864e-003,0.29999,60.00000,7.429471e-006
 861.07,385.075, 4.588107e-003,0.30000,60.00000,7.437698e-006
 863.07,384.668, 4.607937e-003,0.30002,60.00000,7.445338e-006
 865.07,384.259, 4.627610e-003,0.29999,60.00000,7.452564e-006
 867.07,383.853, 4.644993e-003,0.29999,60.00000,7.456448e-006
 869.07,383.45, 4.664594e-003,0.29997,60.00000,7.463494e-006
 871.07,383.05, 4.685194e-003,0.30000,60.00000,7.472072e-006
 873.07,382.649, 4.705698e-003,0.30001,60.00000,7.480477e-006
 875.07,382.246, 4.725898e-003,0.30001,60.00000,7.488316e-006
 877.07,381.84, 4.746080e-003,0.30000,60.00000,7.496125e-006
 879.07,381.433, 4.766734e-003,0.30001,60.00000,7.504594e-006
 881.07,381.027, 4.787895e-003,0.29999,60.00000,7.513771e-006
 883.07,380.623, 4.808935e-003,0.29998,60.00000,7.522708e-006
 885.07,380.218, 4.829524e-003,0.30000,60.00000,7.530897e-006
 887.07,379.813, 4.849639e-003,0.30000,60.00000,7.538348e-006
 889.07,379.408, 4.870347e-003,0.30001,60.00000,7.546714e-006
 891.07,379, 4.890725e-003,0.30001,60.00000,7.554438e-006
 893.07,378.591, 4.910965e-003,0.30001,60.00000,7.561960e-006
 895.07,378.185, 4.931337e-003,0.29999,60.00000,7.569595e-006
 897.07,377.784, 4.951992e-003,0.29998,60.00000,7.577611e-006
 899.07,377.387, 4.972060e-003,0.29999,60.00000,7.584705e-006
 901.07,376.99, 4.992302e-003,0.29997,60.00000,7.592089e-006
 903.07,376.59, 5.013538e-003,0.29999,60.00000,7.600823e-006
 905.07,376.195, 5.034071e-003,0.30001,60.00000,7.608519e-006
 907.07,375.799, 5.054986e-003,0.29999,60.00000,7.616731e-006
 909.07,375.407, 5.075846e-003,0.30000,60.00000,7.624691e-006
 911.07,375.016, 5.096177e-003,0.29998,60.00000,7.631937e-006
 913.07,374.623, 5.117924e-003,0.30001,60.00000,7.641186e-006
 915.07,374.228, 5.139289e-003,0.30002,60.00000,7.649838e-006
 917.07,373.831, 5.160752e-003,0.30001,60.00000,7.658533e-006
 919.07,373.43, 5.181468e-003,0.30001,60.00000,7.666130e-006
 921.07,373.023, 5.201501e-003,0.30001,60.00000,7.672787e-006
 923.07,372.608, 5.221857e-003,0.29999,60.00000,7.679799e-006
 925.07,372.193, 5.242333e-003,0.30001,60.00000,7.686989e-006
 927.07,371.783, 5.263237e-003,0.30001,60.00000,7.694687e-006
 929.07,371.379, 5.284111e-003,0.30000,60.00000,7.702309e-006
 931.07,370.981, 5.305402e-003,0.30000,60.00000,7.710484e-006
 933.07,370.584, 5.326530e-003,0.30002,60.00000,7.718349e-006
 935.07,370.189, 5.347647e-003,0.30000,60.00000,7.726135e-006
 937.07,369.792, 5.369046e-003,0.30000,60.00000,7.734358e-006
 939.07,369.392, 5.390965e-003,0.30001,60.00000,7.743201e-006
 941.07,368.985, 5.412318e-003,0.30002,60.00000,7.751201e-006
 943.07,368.573, 5.434495e-003,0.30001,60.00000,7.760345e-006
 945.07,368.165, 5.456655e-003,0.30001,60.00000,7.769406e-006
 947.07,367.758, 5.478901e-003,0.30003,60.00000,7.778443e-006
 949.07,367.354, 5.501361e-003,0.29998,60.00000,7.787769e-006
 951.07,366.952, 5.523761e-003,0.30001,60.00000,7.796980e-006
 953.07,366.55, 5.545590e-003,0.29999,60.00000,7.805429e-006
 955.07,366.152, 5.567629e-003,0.29999,60.00000,7.814026e-006
 957.07,365.753, 5.588873e-003,0.30002,60.00000,7.821585e-006
 959.07,365.354, 5.610373e-003,0.29998,60.00000,7.829347e-006
 961.07,364.957, 5.631760e-003,0.29994,60.00000,7.836960e-006
 963.07,364.562, 5.654062e-003,0.29998,60.00000,7.845803e-006
 965.07,364.167, 5.675440e-003,0.29998,60.00000,7.853300e-006
 967.07,363.77, 5.697366e-003,0.30000,60.00000,7.861534e-006
 969.07,363.371, 5.719467e-003,0.30000,60.00000,7.869929e-006
 971.07,362.972, 5.741490e-003,0.30000,60.00000,7.878159e-006
 973.07,362.575, 5.763428e-003,0.30001,60.00000,7.886297e-006
 975.07,362.179, 5.785580e-003,0.29998,60.00000,7.894673e-006
 977.07,361.782, 5.807483e-003,0.29999,60.00000,7.902615e-006
 979.07,361.384, 5.829477e-003,0.30000,60.00000,7.910607e-006
 981.07,360.982, 5.850858e-003,0.30000,60.00000,7.917838e-006
 983.07,360.574, 5.872787e-003,0.30000,60.00000,7.925715e-006
 985.07,360.164, 5.895829e-003,0.29998,60.00000,7.934998e-006
 987.07,359.755, 5.919309e-003,0.29999,60.00000,7.944837e-006
 989.07,359.35, 5.942773e-003,0.29999,60.00000,7.954530e-006
 991.07,358.946, 5.965988e-003,0.30000,60.00000,7.963887e-006
 993.07,358.54, 5.988648e-003,0.30002,60.00000,7.972475e-006
 995.07,358.133, 6.011146e-003,0.30000,60.00000,7.980837e-006
 997.07,357.727, 6.034141e-003,0.29999,60.00000,7.989748e-006
 999.07,357.324, 6.057092e-003,0.29997,60.00000,7.998612e-006
1001.07,356.922, 6.079925e-003,0.29999,60.00000,8.007225e-006
1003.07,356.517, 6.102307e-003,0.29997,60.00000,8.015249e-006
1005.07,356.106, 6.124639e-003,0.29998,60.00000,8.023189e-006
1007.07,355.695, 6.148341e-003,0.29995,60.00000,8.032832e-006
1009.07,355.29, 6.172510e-003,0.29999,60.00000,8.042975e-006
1011.07,354.886, 6.196979e-003,0.30001,60.00000,8.053425e-006
1013.07,354.49, 6.220488e-003,0.30001,60.00000,8.062641e-006
1015.07,354.093, 6.243763e-003,0.29999,60.00000,8.071489e-006
1017.07,353.695, 6.267185e-003,0.29998,60.00000,8.080533e-006
1019.07,353.296, 6.289854e-003,0.29999,60.00000,8.088591e-006
1021.07,352.894, 6.312825e-003,0.30000,60.00000,8.096928e-006
1023.07,352.495, 6.335899e-003,0.30000,60.00000,8.105403e-006
1025.07,352.096, 6.358312e-003,0.30001,60.00000,8.113054e-006
1027.07,351.699, 6.380938e-003,0.30000,60.00000,8.120832e-006
1029.07,351.303, 6.404092e-003,0.29999,60.00000,8.129327e-006
1031.07,350.909, 6.427866e-003,0.30000,60.00000,8.138492e-006
1033.07,350.515, 6.451262e-003,0.29998,60.00000,8.147001e-006
1035.07,350.119, 6.474164e-003,0.30003,60.00000,8.155104e-006
1037.07,349.719, 6.496868e-003,0.30000,60.00000,8.162799e-006
1039.07,349.314, 6.519753e-003,0.29998,60.00000,8.170738e-006
1041.07,348.906, 6.542226e-003,0.29999,60.00000,8.178126e-006
1043.07,348.495, 6.565051e-003,0.30000,60.00000,8.185896e-006
1045.07,348.083, 6.587753e-003,0.29998,60.00000,8.193460e-006
1047.07,347.674, 6.610822e-003,0.29999,60.00000,8.201467e-006
1049.07,347.27, 6.634567e-003,0.29998,60.00000,8.210188e-006
1051.07,346.867, 6.658902e-003,0.29998,60.00000,8.219616e-006
1053.07,346.462, 6.684678e-003,0.29999,60.00000,8.230645e-006
1055.07,346.055, 6.709489e-003,0.30002,60.00000,8.240575e-006
1057.07,345.648, 6.733810e-003,0.29997,60.00000,8.249787e-006
1059.07,345.24, 6.757858e-003,0.29998,60.00000,8.258718e-006
1061.07,344.835, 6.782468e-003,0.30000,60.00000,8.268202e-006
1063.07,344.431, 6.806567e-003,0.29999,60.00000,8.277067e-006
1065.07,344.028, 6.831232e-003,0.30000,60.00000,8.286562e-006
1067.07,343.626, 6.855926e-003,0.29999,60.00000,8.296046e-006
1069.07,343.226, 6.880002e-003,0.29999,60.00000,8.304739e-006
1071.07,342.828, 6.904062e-003,0.29996,60.00000,8.313389e-006
1073.07,342.431, 6.929129e-003,0.29998,60.00000,8.323158e-006
1075.07,342.033, 6.954036e-003,0.29999,60.00000,8.332754e-006
1077.07,341.636, 6.979103e-003,0.29998,60.00000,8.342424e-006
1079.07,341.24, 7.003938e-003,0.29999,60.00000,8.351823e-006
1081.07,340.845, 7.027985e-003,0.30000,60.00000,8.360215e-006
1083.07,340.447, 7.051638e-003,0.30000,60.00000,8.368232e-006
1085.07,340.05, 7.075762e-003,0.30000,60.00000,8.376638e-006
1087.07,339.651, 7.099749e-003,0.29998,60.00000,8.384857e-006
1089.07,339.248, 7.123558e-003,0.30001,60.00000,8.392857e-006
1091.07,338.843, 7.147600e-003,0.29999,60.00000,8.401122e-006
1093.07,338.441, 7.172199e-003,0.30000,60.00000,8.409906e-006
1095.07,338.04, 7.197270e-003,0.29998,60.00000,8.419256e-006
1097.07,337.639, 7.222263e-003,0.30000,60.00000,8.428448e-006
1099.07,337.236, 7.246388e-003,0.30002,60.00000,8.436610e-006
1101.07,336.83, 7.270231e-003,0.29999,60.00000,8.444441e-006
1103.07,336.423, 7.294718e-003,0.29998,60.00000,8.452972e-006
1105.07,336.018, 7.320070e-003,0.30001,60.00000,8.462430e-006
1107.07,335.619, 7.345368e-003,0.29999,60.00000,8.471663e-006
1109.07,335.216, 7.369001e-003,0.30001,60.00000,8.479127e-006
1111.07,334.808, 7.393450e-003,0.30000,60.00000,8.487490e-006
1113.07,334.404, 7.417804e-003,0.30000,60.00000,8.495656e-006
1115.07,334.003, 7.444007e-003,0.29998,60.00000,8.505838e-006
1117.07,333.603, 7.469923e-003,0.30000,60.00000,8.515634e-006
1119.07,333.199, 7.495734e-003,0.30000,60.00000,8.525260e-006
1121.07,332.793, 7.521554e-003,0.30000,60.00000,8.534973e-006
1123.07,332.395, 7.547912e-003,0.29998,60.00000,8.545103e-006
1125.07,331.998, 7.573666e-003,0.29999,60.00000,8.554520e-006
1127.07,331.601, 7.599339e-003,0.29999,60.00000,8.563884e-006
1129.07,331.198, 7.625078e-003,0.29999,60.00000,8.573259e-006
1131.07,330.791, 7.650980e-003,0.29999,60.00000,8.582800e-006
1133.07,330.387, 7.676682e-003,0.29996,60.00000,8.592023e-006
1135.07,329.981, 7.702311e-003,0.29999,60.00000,8.601160e-006
1137.07,329.573, 7.728082e-003,0.29999,60.00000,8.610417e-006
1139.07,329.165, 7.753644e-003,0.29999,60.00000,8.619395e-006
1141.07,328.764, 7.779365e-003,0.29998,60.00000,8.628511e-006
1143.07,328.375, 7.805330e-003,0.30000,60.00000,8.637876e-006
1145.07,327.994, 7.831575e-003,0.30000,60.00000,8.647389e-006
1147.07,327.607, 7.856905e-003,0.29998,60.00000,8.655958e-006
1149.07,327.21, 7.882357e-003,0.30001,60.00000,8.664665e-006
1151.07,326.812, 7.908364e-003,0.30000,60.00000,8.673862e-006
1153.07,326.409, 7.933395e-003,0.29999,60.00000,8.682030e-006
1155.07,325.998, 7.958477e-003,0.29998,60.00000,8.690175e-006
1157.07,325.58, 7.983768e-003,0.29999,60.00000,8.698551e-006
1159.07,325.166, 8.010686e-003,0.29999,60.00000,8.708590e-006
1161.07,324.762, 8.037274e-003,0.30000,60.00000,8.718224e-006
1163.07,324.354, 8.063756e-003,0.30001,60.00000,8.727673e-006
1165.07,323.929, 8.090536e-003,0.30000,60.00000,8.737479e-006
1167.07,323.507, 8.116094e-003,0.29998,60.00000,8.745924e-006
1169.07,323.093, 8.140357e-003,0.29999,60.00000,8.752966e-006
1171.07,322.677, 8.166283e-003,0.30001,60.00000,8.761771e-006
1173.07,322.271, 8.193929e-003,0.30001,60.00000,8.772217e-006
1175.07,321.859, 8.221010e-003,0.30000,60.00000,8.782132e-006
1177.07,321.447, 8.247959e-003,0.29999,60.00000,8.791857e-006
1179.07,321.046, 8.275609e-003,0.30000,60.00000,8.802248e-006
1181.07,320.655, 8.303446e-003,0.29997,60.00000,8.812734e-006
1183.07,320.261, 8.330270e-003,0.30000,60.00000,8.822139e-006
1185.07,319.842, 8.355143e-003,0.29997,60.00000,8.829550e-006
1187.07,319.392, 8.380499e-003,0.30002,60.00000,8.837561e-006
1189.07,318.957, 8.408643e-003,0.30002,60.00000,8.848295e-006
1191.07,318.569, 8.439241e-003,0.29998,60.00000,8.861483e-006
1193.07,318.225, 8.470928e-003,0.29999,60.00000,8.875675e-006
1195.07,317.912, 8.501892e-003,0.30001,60.00000,8.889033e-006
1197.07,317.607, 8.530482e-003,0.30000,60.00000,8.899785e-006
1199.07,317.269, 8.556229e-003,0.29999,60.00000,8.907753e-006
1201.07,316.847, 8.579986e-003,0.30000,60.00000,8.913744e-006
1203.07,316.276, 8.600941e-003,0.29998,60.00000,8.917147e-006
1205.07,315.74, 8.628633e-003,0.29997,60.00000,8.927175e-006
1207.07,315.32, 8.657727e-003,0.30003,60.00000,8.938434e-006
1209.07,314.966, 8.690012e-003,0.29997,60.00000,8.952879e-006
1211.07,314.661, 8.721604e-003,0.30002,60.00000,8.966443e-006
1213.07,314.374, 8.751466e-003,0.29999,60.00000,8.978177e-006
1215.07,314.068, 8.777859e-003,0.29997,60.00000,8.986451e-006
1217.07,313.702, 8.803076e-003,0.29995,60.00000,8.993655e-006
1219.07,313.209, 8.825225e-003,0.30001,60.00000,8.997821e-006
1221.07,312.523, 8.848543e-003,0.30000,60.00000,9.003478e-006
1223.07,312.01, 8.877052e-003,0.29999,60.00000,9.013713e-006
1225.07,311.596, 8.908472e-003,0.30002,60.00000,9.027047e-006
1227.07,311.264, 8.943293e-003,0.29999,60.00000,9.043489e-006
1229.07,310.981, 8.977691e-003,0.29997,60.00000,9.059395e-006
1231.07,310.713, 9.009506e-003,0.29998,60.00000,9.072543e-006
1233.07,310.425, 9.038259e-003,0.29998,60.00000,9.082871e-006
1235.07,310.088, 9.065589e-003,0.29999,60.00000,9.091826e-006
1237.07,309.658, 9.089434e-003,0.30000,60.00000,9.097319e-006
1239.07,308.92, 9.107059e-003,0.30000,60.00000,9.097089e-006
1241.07,308.328, 9.139173e-003,0.29998,60.00000,9.110737e-006
1243.07,307.957, 9.170559e-003,0.30001,60.00000,9.123391e-006
1245.07,307.647, 9.203961e-003,0.30001,60.00000,9.138055e-006
1247.07,307.369, 9.235838e-003,0.29997,60.00000,9.151001e-006
1249.07,307.095, 9.264717e-003,0.29999,60.00000,9.160975e-006
1251.07,306.796, 9.292489e-003,0.29999,60.00000,9.170092e-006
1253.07,306.465, 9.320446e-003,0.30001,60.00000,9.179302e-006
1255.07,306.094, 9.346479e-003,0.30000,60.00000,9.186623e-006
1257.07,305.605, 9.366311e-003,0.30001,60.00000,9.187921e-006
1259.07,304.725, 9.386086e-003,0.30000,60.00000,9.189896e-006
1261.07,304.261, 9.421254e-003,0.30000,60.00000,9.205768e-006
1263.07,303.937, 9.456075e-003,0.30000,60.00000,9.221284e-006
1265.07,303.656, 9.489792e-003,0.30000,60.00000,9.235600e-006
1267.07,303.388, 9.521052e-003,0.29999,60.00000,9.247549e-006
1269.07,303.103, 9.549571e-003,0.30003,60.00000,9.256890e-006
1271.07,302.78, 9.577821e-003,0.29998,60.00000,9.266203e-006
1273.07,302.414, 9.605680e-003,0.29999,60.00000,9.274924e-006
1275.07,301.983, 9.632270e-003,0.29999,60.00000,9.282475e-006
1277.07,301.355, 9.654929e-003,0.29999,60.00000,9.286323e-006
1279.07,300.661, 9.689924e-003,0.29998,60.00000,9.302074e-006
1281.07,300.255, 9.726004e-003,0.29997,60.00000,9.318286e-006
1283.07,299.92, 9.759997e-003,0.29998,60.00000,9.332579e-006
1285.07,299.615, 9.793583e-003,0.30000,60.00000,9.346357e-006
1287.07,299.315, 9.825650e-003,0.29998,60.00000,9.358639e-006
1289.07,299, 9.856475e-003,0.30000,60.00000,9.369814e-006
1291.07,298.65, 9.886123e-003,0.29999,60.00000,9.379925e-006
1293.07,298.247, 9.914428e-003,0.29999,60.00000,9.388759e-006
1295.07,297.772, 9.943050e-003,0.30000,60.00000,9.397887e-006
1297.07,297.224, 9.975215e-003,0.30000,60.00000,9.410332e-006
1299.07,296.757, 1.000932e-002,0.29999,60.00000,9.424355e-006
1301.07,296.352, 1.004328e-002,0.29999,60.00000,9.438142e-006
1303.07,295.964, 1.007689e-002,0.29999,60.00000,9.451610e-006
1305.07,295.58, 1.010910e-002,0.29997,60.00000,9.463749e-006
1307.07,295.19, 1.014103e-002,0.29999,60.00000,9.475590e-006
1309.07,294.794, 1.017499e-002,0.29996,60.00000,9.489276e-006
1311.07,294.398, 1.020840e-002,0.30000,60.00000,9.502355e-006
1313.07,294.003, 1.024096e-002,0.30000,60.00000,9.514649e-006
1315.07,293.609, 1.027388e-002,0.30000,60.00000,9.527219e-006
1317.07,293.211, 1.030696e-002,0.29999,60.00000,9.539907e-006
1319.07,292.807, 1.034005e-002,0.29998,60.00000,9.552486e-006
1321.07,292.401, 1.037319e-002,0.30000,60.00000,9.565161e-006
1323.07,291.994, 1.040805e-002,0.29998,60.00000,9.579276e-006
1325.07,291.578, 1.044253e-002,0.29998,60.00000,9.593014e-006
1327.07,291.159, 1.047751e-002,0.29998,60.00000,9.607170e-006
1329.07,290.743, 1.051236e-002,0.30000,60.00000,9.621135e-006
1331.07,290.331, 1.054732e-002,0.29998,60.00000,9.635139e-006
1333.07,289.918, 1.058263e-002,0.30000,60.00000,9.649407e-006
1335.07,289.503, 1.061810e-002,0.29999,60.00000,9.663865e-006
1337.07,289.098, 1.065633e-002,0.30002,60.00000,9.680560e-006
1339.07,288.7, 1.069426e-002,0.30002,60.00000,9.697046e-006
1341.07,288.304, 1.073177e-002,0.29998,60.00000,9.713058e-006
1343.07,287.91, 1.076956e-002,0.30000,60.00000,9.729238e-006
1345.07,287.518, 1.080704e-002,0.29997,60.00000,9.745107e-006
1347.07,287.126, 1.084402e-002,0.29999,60.00000,9.760509e-006
1349.07,286.732, 1.088270e-002,0.29999,60.00000,9.777320e-006
1351.07,286.329, 1.092035e-002,0.30001,60.00000,9.793109e-006
1353.07,285.896, 1.095716e-002,0.30000,60.00000,9.808190e-006
1355.07,285.433, 1.099605e-002,0.30000,60.00000,9.825136e-006
1357.07,285.009, 1.103752e-002,0.29997,60.00000,9.844104e-006
1359.07,284.611, 1.107661e-002,0.30002,60.00000,9.860947e-006
1361.07,284.206, 1.111669e-002,0.30002,60.00000,9.878717e-006
1363.07,283.806, 1.115739e-002,0.29999,60.00000,9.896830e-006
1365.07,283.416, 1.119727e-002,0.30001,60.00000,9.914233e-006
1367.07,283.032, 1.123703e-002,0.29999,60.00000,9.931455e-006
1369.07,282.652, 1.127619e-002,0.30000,60.00000,9.948100e-006
1371.07,282.275, 1.131797e-002,0.29990,60.00000,9.966954e-006
1373.07,281.9, 1.136191e-002,0.30000,60.00000,9.987553e-006
1375.07,281.527, 1.140557e-002,0.29997,60.00000,1.000797e-005
1377.07,281.165, 1.144887e-002,0.30003,60.00000,1.002791e-005
1379.07,280.809, 1.149220e-002,0.29999,60.00000,1.004781e-005
1381.07,280.457, 1.153580e-002,0.29999,60.00000,1.006786e-005
1383.07,280.109, 1.158191e-002,0.30002,60.00000,1.009001e-005
1385.07,279.765, 1.162780e-002,0.29998,60.00000,1.011189e-005
1387.07,279.424, 1.167369e-002,0.29999,60.00000,1.013365e-005
1389.07,279.081, 1.171972e-002,0.30000,60.00000,1.015557e-005
1391.07,278.74, 1.176712e-002,0.30001,60.00000,1.017842e-005
1393.07,278.394, 1.181673e-002,0.29999,60.00000,1.020319e-005
1395.07,278.041, 1.186838e-002,0.29998,60.00000,1.022954e-005
1397.07,277.687, 1.192143e-002,0.29999,60.00000,1.025704e-005
1399.07,277.321, 1.197412e-002,0.30000,60.00000,1.028396e-005