File: 李院长 MgO-C C15-骨  1400 @ S1-1.csv
#EXPORTTYPE:       ,DATA ALL
#FILE:             ,李院长 MgO-C C15-骨 C15-基 1400.ngb-dl9
#FORMAT:           ,NETZSCH5
#FTYPE:            ,ANSI
#IDENTITY:         ,C15-骨
#DECIMAL:          ,POINT
#SEPARATOR:        ,COMMA
#MTYPE:            ,DIL
#INSTRUMENT:       ,NETZSCH DIL 402SU
#PROJECT:          ,123
#DATE/TIME:        ,2025/6/5 17:20:27 (UTC+8)
#CORR. FILE:       ,石墨炉 1400度-1.ngb-cl9
#TEMPCAL:          ,TCALZERO.TMX
#LABORATORY:       ,wust
#OPERATOR:         ,
#REMARK:           ,
#SAMPLE:           ,镁碳
#SAMPLE LENGTH /mm:,25.96
#MATERIAL:         ,镁碳
#MEASMODE:         ,Standard Expansion
#M.RANGE /μm:      ,50000
#CORR. CODE:       ,080
#RANGE:            ,25°C/5.0(K/min)/1403°C
#SEGMENT:          ,S1/2
#SEG. 1:           ,25°C/5.0(K/min)/1403°C
#Tref:             ,30.0°C

##Temp./°C,Time/min,dL/Lo,Gas Flow(protective)/(ml/min),m. CTE(1)/(1/K)
  50.00000,  4.67629,2.496846e-004,60.00000,1.023689e-005
  52.00000,  5.00197,2.598803e-004,60.00000,9.761918e-006
  54.00000,  5.32484,2.663562e-004,60.00000,9.215292e-006
  56.00000,  5.67306,2.721088e-004,60.00000,8.725189e-006
  58.00000,  6.07617,2.824864e-004,60.00000,8.474563e-006
  60.00000,  6.55673,2.996389e-004,60.00000,8.485823e-006
  62.00000,  7.04832,3.208188e-004,60.00000,8.618845e-006
  64.00000,  7.47456,3.399821e-004,60.00000,8.677104e-006
  66.00000,  7.84358,3.552261e-004,60.00000,8.618013e-006
  68.00000,  8.17885,3.646720e-004,60.00000,8.411838e-006
  70.00000,  8.50803,3.729269e-004,60.00000,8.193984e-006
  72.00000,  8.86171,3.812932e-004,60.00000,8.000736e-006
  74.00000,  9.27255,3.931199e-004,60.00000,7.907208e-006
  76.00000,  9.75466,4.106831e-004,60.00000,7.947276e-006
  78.00000, 10.23250,4.329287e-004,60.00000,8.081968e-006
  80.00000, 10.65146,4.509704e-004,60.00000,8.119388e-006
  82.00000, 11.02082,4.652618e-004,60.00000,8.081561e-006
  84.00000, 11.36279,4.761374e-004,60.00000,7.982209e-006
  86.00000, 11.70332,4.848767e-004,60.00000,7.852133e-006
  88.00000, 12.07337,4.957471e-004,60.00000,7.768951e-006
  90.00000, 12.50203,5.109574e-004,60.00000,7.763432e-006
  92.00000, 12.98162,5.305129e-004,60.00000,7.830204e-006
  94.00000, 13.43971,5.517337e-004,60.00000,7.917301e-006
  96.00000, 13.84744,5.693504e-004,60.00000,7.944815e-006
  98.00000, 14.21727,5.825460e-004,60.00000,7.904909e-006
 100, 14.56579,5.935331e-004,60.00000,7.834869e-006
 102, 14.91782,6.033351e-004,60.00000,7.752927e-006
 104, 15.30147,6.140978e-004,60.00000,7.688180e-006
 106, 15.73972,6.315471e-004,60.00000,7.715955e-006
 108, 16.20790,6.519811e-004,60.00000,7.780615e-006
 110, 16.65413,6.706246e-004,60.00000,7.819658e-006
 112, 17.06100,6.870262e-004,60.00000,7.829556e-006
 114, 17.43731,7.005933e-004,60.00000,7.804291e-006
 116, 17.79684,7.122904e-004,60.00000,7.758272e-006
 118, 18.15608,7.242033e-004,60.00000,7.716457e-006
 120, 18.53695,7.376378e-004,60.00000,7.693932e-006
 122, 18.95404,7.531832e-004,60.00000,7.696490e-006
 124, 19.39697,7.713705e-004,60.00000,7.726400e-006
 126, 19.83604,7.881839e-004,60.00000,7.740700e-006
 128, 20.25404,8.041177e-004,60.00000,7.745835e-006
 130, 20.65146,8.193807e-004,60.00000,7.743573e-006
 132, 21.03433,8.323630e-004,60.00000,7.718363e-006
 134, 21.41028,8.457701e-004,60.00000,7.699074e-006
 136, 21.78865,8.583618e-004,60.00000,7.672084e-006
 138, 22.17657,8.720464e-004,60.00000,7.657039e-006
 140, 22.58108,8.870104e-004,60.00000,7.653623e-006
 142, 23.00169,9.025396e-004,60.00000,7.656156e-006
 144, 23.43484,9.194014e-004,60.00000,7.669349e-006
 146, 23.87235,9.363409e-004,60.00000,7.683207e-006
 148, 24.30753,9.521940e-004,60.00000,7.687572e-006
 150, 24.73127,9.677839e-004,60.00000,7.689409e-006
 152, 25.14223,9.818044e-004,60.00000,7.678701e-006
 154, 25.54219,9.959637e-004,60.00000,7.668350e-006
 156, 25.93594,1.010750e-003,60.00000,7.664189e-006
 158, 26.32778,1.025731e-003,60.00000,7.661355e-006
 160, 26.72207,1.039978e-003,60.00000,7.652770e-006
 162, 27.12273,1.055342e-003,60.00000,7.653512e-006
 164, 27.53199,1.071197e-003,60.00000,7.657501e-006
 166, 27.94801,1.087757e-003,60.00000,7.666774e-006
 168, 28.36844,1.103910e-003,60.00000,7.672551e-006
 170, 28.78940,1.120206e-003,60.00000,7.679386e-006
 172, 29.20694,1.135832e-003,60.00000,7.681709e-006
 174, 29.61896,1.151105e-003,60.00000,7.680704e-006
 176, 30.02516,1.166111e-003,60.00000,7.678445e-006
 178, 30.42635,1.181920e-003,60.00000,7.681411e-006
 180, 30.82488,1.197573e-003,60.00000,7.683386e-006
 182, 31.22355,1.213186e-003,60.00000,7.685008e-006
 184, 31.62438,1.229987e-003,60.00000,7.694280e-006
 186, 32.02602,1.246569e-003,60.00000,7.701952e-006
 188, 32.42996,1.263404e-003,60.00000,7.710837e-006
 190, 32.83728,1.280201e-003,60.00000,7.719529e-006
 192, 33.24681,1.297258e-003,60.00000,7.729524e-006
 194, 33.65542,1.314189e-003,60.00000,7.738618e-006
 196, 34.06273,1.331144e-003,60.00000,7.747445e-006
 198, 34.46832,1.347104e-003,60.00000,7.750213e-006
 200, 34.87252,1.362992e-003,60.00000,7.752694e-006
 202, 35.27544,1.379567e-003,60.00000,7.758810e-006
 204, 35.67622,1.396048e-003,60.00000,7.764328e-006
 206, 36.07647,1.412460e-003,60.00000,7.769079e-006
 208, 36.47689,1.428114e-003,60.00000,7.769805e-006
 210, 36.87689,1.443705e-003,60.00000,7.770253e-006
 212, 37.27579,1.459442e-003,60.00000,7.771293e-006
 214, 37.67410,1.475710e-003,60.00000,7.775185e-006
 216, 38.07124,1.491383e-003,60.00000,7.775896e-006
 218, 38.46737,1.507965e-003,60.00000,7.781382e-006
 220, 38.86168,1.524421e-003,60.00000,7.786002e-006
 222, 39.25547,1.540529e-003,60.00000,7.788849e-006
 224, 39.64928,1.557295e-003,60.00000,7.794866e-006
 226, 40.04442,1.574917e-003,60.00000,7.805262e-006
 228, 40.44090,1.592820e-003,60.00000,7.816755e-006
 230, 40.83796,1.610557e-003,60.00000,7.827314e-006
 232, 41.23555,1.628069e-003,60.00000,7.836668e-006
 234, 41.63318,1.645777e-003,60.00000,7.846730e-006
 236, 42.03036,1.662281e-003,60.00000,7.850432e-006
 238, 42.42640,1.678883e-003,60.00000,7.854667e-006
 240, 42.82164,1.694748e-003,60.00000,7.855656e-006
 242, 43.21585,1.711073e-003,60.00000,7.858395e-006
 244, 43.60917,1.727230e-003,60.00000,7.860519e-006
 246, 44.00267,1.743226e-003,60.00000,7.861633e-006
 248, 44.39716,1.759734e-003,60.00000,7.865473e-006
 250, 44.79244,1.776100e-003,60.00000,7.868313e-006
 252, 45.18945,1.793216e-003,60.00000,7.874426e-006
 254, 45.58909,1.810417e-003,60.00000,7.881062e-006
 256, 45.98995,1.827518e-003,60.00000,7.886865e-006
 258, 46.39084,1.844708e-003,60.00000,7.893110e-006
 260, 46.79151,1.861868e-003,60.00000,7.899036e-006
 262, 47.19323,1.879271e-003,60.00000,7.905942e-006
 264, 47.59718,1.897008e-003,60.00000,7.914260e-006
 266, 48.00308,1.914333e-003,60.00000,7.920639e-006
 268, 48.41027,1.931127e-003,60.00000,7.924572e-006
 270, 48.81806,1.948878e-003,60.00000,7.932508e-006
 272, 49.22586,1.965836e-003,60.00000,7.936925e-006
 274, 49.63219,1.982219e-003,60.00000,7.939112e-006
 276, 50.03657,1.999700e-003,60.00000,7.945592e-006
 278, 50.43994,2.016611e-003,60.00000,7.949746e-006
 280, 50.84262,2.034803e-003,60.00000,7.958851e-006
 282, 51.24548,2.051388e-003,60.00000,7.961679e-006
 284, 51.64745,2.068401e-003,60.00000,7.965889e-006
 286, 52.05015,2.085667e-003,60.00000,7.971029e-006
 288, 52.45426,2.103397e-003,60.00000,7.978103e-006
 290, 52.86068,2.120673e-003,60.00000,7.983031e-006
 292, 53.26958,2.138680e-003,60.00000,7.990962e-006
 294, 53.67941,2.155823e-003,60.00000,7.995147e-006
 296, 54.10037,2.172755e-003,60.00000,7.997121e-006
 298, 54.52588,2.188753e-003,60.00000,7.998853e-006
 300, 54.92554,2.204938e-003,60.00000,7.999561e-006
 302, 55.32020,2.221177e-003,60.00000,8.000366e-006
 304, 55.71304,2.237405e-003,60.00000,8.001063e-006
 306, 56.10641,2.253820e-003,60.00000,8.002645e-006
 308, 56.50262,2.270393e-003,60.00000,8.004679e-006
 310, 56.90340,2.286778e-003,60.00000,8.006146e-006
 312, 57.30757,2.304047e-003,60.00000,8.010711e-006
 314, 57.71342,2.320898e-003,60.00000,8.013496e-006
 316, 58.11968,2.337570e-003,60.00000,8.015729e-006
 318, 58.52182,2.354485e-003,60.00000,8.018801e-006
 320, 58.92226,2.371448e-003,60.00000,8.022075e-006
 322, 59.32320,2.388268e-003,60.00000,8.024724e-006
 324, 59.72352,2.405101e-003,60.00000,8.027349e-006
 326, 60.12620,2.421976e-003,60.00000,8.030094e-006
 328, 60.53126,2.439986e-003,60.00000,8.036588e-006
 330, 60.93677,2.457354e-003,60.00000,8.040821e-006
 332, 61.34282,2.474429e-003,60.00000,8.044177e-006
 334, 61.74954,2.491409e-003,60.00000,8.047065e-006
 336, 62.15600,2.507405e-003,60.00000,8.046781e-006
 338, 62.56355,2.524250e-003,60.00000,8.049260e-006
 340, 62.97160,2.540382e-003,60.00000,8.049350e-006
 342, 63.38009,2.556548e-003,60.00000,8.049585e-006
 344, 63.79005,2.572191e-003,60.00000,8.048153e-006
 346, 64.20080,2.588434e-003,60.00000,8.048726e-006
 348, 64.61050,2.604149e-003,60.00000,8.047374e-006
 350, 65.01890,2.619541e-003,60.00000,8.045172e-006
 352, 65.42609,2.634860e-003,60.00000,8.042774e-006
 354, 65.83269,2.651730e-003,60.00000,8.045188e-006
 356, 66.24064,2.668331e-003,60.00000,8.046787e-006
 358, 66.65126,2.685515e-003,60.00000,8.050085e-006
 360, 67.06540,2.702470e-003,60.00000,8.052634e-006
 362, 67.48135,2.719578e-003,60.00000,8.055726e-006
 364, 67.89446,2.736271e-003,60.00000,8.057533e-006
 366, 68.30410,2.753274e-003,60.00000,8.060128e-006
 368, 68.71107,2.770462e-003,60.00000,8.063167e-006
 370, 69.11953,2.787263e-003,60.00000,8.065286e-006
 372, 69.53062,2.805286e-003,60.00000,8.070722e-006
 374, 69.94366,2.822341e-003,60.00000,8.073471e-006
 376, 70.35514,2.838583e-003,60.00000,8.073783e-006
 378, 70.76426,2.855103e-003,60.00000,8.074813e-006
 380, 71.16926,2.871350e-003,60.00000,8.075062e-006
 382, 71.57153,2.886716e-003,60.00000,8.072796e-006
 384, 71.97315,2.902988e-003,60.00000,8.073193e-006
 386, 72.37589,2.919500e-003,60.00000,8.074209e-006
 388, 72.78014,2.935394e-003,60.00000,8.073538e-006
 390, 73.18674,2.951540e-003,60.00000,8.073502e-006
 392, 73.59410,2.967979e-003,60.00000,8.074361e-006
 394, 73.99975,2.984052e-003,60.00000,8.074091e-006
 396, 74.40374,2.999922e-003,60.00000,8.073341e-006
 398, 74.80857,3.015902e-003,60.00000,8.072870e-006
 400, 75.21377,3.032018e-003,60.00000,8.072835e-006
 402, 75.61835,3.048548e-003,60.00000,8.073855e-006
 404, 76.02320,3.064319e-003,60.00000,8.072806e-006
 406, 76.42969,3.080939e-003,60.00000,8.074160e-006
 408, 76.83693,3.096883e-003,60.00000,8.073607e-006
 410, 77.24561,3.112782e-003,60.00000,8.072881e-006
 412, 77.65566,3.129513e-003,60.00000,8.074403e-006
 414, 78.06590,3.146507e-003,60.00000,8.076660e-006
 416, 78.47551,3.162802e-003,60.00000,8.076980e-006
 418, 78.88343,3.178540e-003,60.00000,8.075938e-006
 420, 79.28828,3.194538e-003,60.00000,8.075584e-006
 422, 79.69124,3.210774e-003,60.00000,8.075772e-006
 424, 80.09476,3.226908e-003,60.00000,8.075608e-006
 426, 80.50106,3.243319e-003,60.00000,8.076269e-006
 428, 80.91092,3.259507e-003,60.00000,8.076403e-006
 430, 81.32386,3.275849e-003,60.00000,8.076942e-006
 432, 81.73671,3.292816e-003,60.00000,8.078958e-006
 434, 82.14865,3.308869e-003,60.00000,8.078611e-006
 436, 82.55902,3.324751e-003,60.00000,8.077976e-006
 438, 82.96884,3.340868e-003,60.00000,8.077863e-006
 440, 83.38016,3.356708e-003,60.00000,8.077151e-006
 442, 83.79288,3.373529e-003,60.00000,8.078747e-006
 444, 84.20433,3.390642e-003,60.00000,8.081018e-006
 446, 84.61503,3.408152e-003,60.00000,8.084293e-006
 448, 85.02677,3.425305e-003,60.00000,8.086583e-006
 450, 85.44073,3.442049e-003,60.00000,8.087959e-006
 452, 85.85323,3.459471e-003,60.00000,8.091030e-006
 454, 86.26341,3.475741e-003,60.00000,8.091211e-006
 456, 86.67009,3.491782e-003,60.00000,8.090900e-006
 458, 87.07316,3.508521e-003,60.00000,8.092241e-006
 460, 87.47450,3.524972e-003,60.00000,8.092745e-006
 462, 87.87712,3.541226e-003,60.00000,8.092921e-006
 464, 88.28289,3.557097e-003,60.00000,8.092231e-006
 466, 88.69072,3.573726e-003,60.00000,8.093246e-006
 468, 89.09866,3.589481e-003,60.00000,8.092278e-006
 470, 89.50480,3.605481e-003,60.00000,8.091857e-006
 472, 89.90978,3.621015e-003,60.00000,8.090366e-006
 474, 90.31376,3.637184e-003,60.00000,8.090286e-006
 476, 90.71783,3.652942e-003,60.00000,8.089385e-006
 478, 91.12277,3.669372e-003,60.00000,8.089940e-006
 480, 91.52893,3.684785e-003,60.00000,8.088287e-006
 482, 91.93573,3.700782e-003,60.00000,8.087782e-006
 484, 92.34252,3.716511e-003,60.00000,8.086849e-006
 486, 92.74861,3.732146e-003,60.00000,8.085597e-006
 488, 93.15289,3.748186e-003,60.00000,8.085380e-006
 490, 93.55645,3.764987e-003,60.00000,8.086786e-006
 492, 93.96087,3.781895e-003,60.00000,8.088361e-006
 494, 94.36833,3.798749e-003,60.00000,8.089811e-006
 496, 94.77896,3.814907e-003,60.00000,8.089810e-006
 498, 95.19119,3.831642e-003,60.00000,8.090946e-006
 500, 95.60381,3.847342e-003,60.00000,8.089963e-006
 502, 96.01356,3.862963e-003,60.00000,8.088826e-006
 504, 96.41978,3.878709e-003,60.00000,8.087886e-006
 506, 96.82546,3.895257e-003,60.00000,8.088612e-006
 508, 97.23253,3.912139e-003,60.00000,8.090041e-006
 510, 97.64196,3.928875e-003,60.00000,8.091242e-006
 512, 98.05407,3.945594e-003,60.00000,8.092252e-006
 514, 98.46782,3.962416e-003,60.00000,8.093703e-006
 516, 98.88084,3.978966e-003,60.00000,8.094387e-006
 518, 99.29238,3.994847e-003,60.00000,8.093801e-006
 520, 99.70222,4.011182e-003,60.00000,8.094135e-006
 522,100.111,4.026757e-003,60.00000,8.092885e-006
 524,100.52,4.042666e-003,60.00000,8.092261e-006
 526,100.932,4.058034e-003,60.00000,8.090686e-006
 528,101.344,4.073401e-003,60.00000,8.089041e-006
 530,101.754,4.088867e-003,60.00000,8.087656e-006
 532,102.16,4.104712e-003,60.00000,8.086990e-006
 534,102.563,4.121028e-003,60.00000,8.087212e-006
 536,102.963,4.137670e-003,60.00000,8.088131e-006
 538,103.364,4.154453e-003,60.00000,8.089276e-006
 540,103.766,4.171133e-003,60.00000,8.090293e-006
 542,104.17,4.187455e-003,60.00000,8.090571e-006
 544,104.577,4.203435e-003,60.00000,8.090207e-006
 546,104.986,4.219719e-003,60.00000,8.090375e-006
 548,105.396,4.235686e-003,60.00000,8.089939e-006
 550,105.803,4.251600e-003,60.00000,8.089489e-006
 552,106.208,4.266729e-003,60.00000,8.087542e-006
 554,106.609,4.282036e-003,60.00000,8.085793e-006
 556,107.009,4.297525e-003,60.00000,8.084537e-006
 558,107.409,4.313078e-003,60.00000,8.083350e-006
 560,107.813,4.329117e-003,60.00000,8.083053e-006
 562,108.221,4.345247e-003,60.00000,8.083008e-006
 564,108.63,4.360675e-003,60.00000,8.081641e-006
 566,109.037,4.375648e-003,60.00000,8.079430e-006
 568,109.443,4.390933e-003,60.00000,8.077810e-006
 570,109.85,4.407316e-003,60.00000,8.078182e-006
 572,110.26,4.423798e-003,60.00000,8.078847e-006
 574,110.67,4.441268e-003,60.00000,8.081268e-006
 576,111.078,4.458542e-003,60.00000,8.083327e-006
 578,111.482,4.475677e-003,60.00000,8.085073e-006
 580,111.887,4.492378e-003,60.00000,8.086005e-006
 582,112.295,4.509191e-003,60.00000,8.087175e-006
 584,112.708,4.526154e-003,60.00000,8.088627e-006
 586,113.122,4.542470e-003,60.00000,8.088849e-006
 588,113.533,4.559049e-003,60.00000,8.089585e-006
 590,113.94,4.575567e-003,60.00000,8.090184e-006
 592,114.347,4.591891e-003,60.00000,8.090384e-006
 594,114.753,4.607658e-003,60.00000,8.089673e-006
 596,115.158,4.622742e-003,60.00000,8.087722e-006
 598,115.563,4.638173e-003,60.00000,8.086396e-006
 600,115.968,4.653563e-003,60.00000,8.085155e-006
 602,116.371,4.669239e-003,60.00000,8.084228e-006
 604,116.772,4.685000e-003,60.00000,8.083584e-006
 606,117.17,4.701080e-003,60.00000,8.083330e-006
 608,117.57,4.716579e-003,60.00000,8.082151e-006
 610,117.972,4.733473e-003,60.00000,8.083437e-006
 612,118.376,4.749627e-003,60.00000,8.083432e-006
 614,118.782,4.766557e-003,60.00000,8.084701e-006
 616,119.19,4.783087e-003,60.00000,8.085385e-006
 618,119.596,4.799162e-003,60.00000,8.085240e-006
 620,119.997,4.815466e-003,60.00000,8.085360e-006
 622,120.4,4.831540e-003,60.00000,8.085259e-006
 624,120.806,4.847765e-003,60.00000,8.085353e-006
 626,121.217,4.864050e-003,60.00000,8.085563e-006
 628,121.627,4.880200e-003,60.00000,8.085451e-006
 630,122.035,4.896288e-003,60.00000,8.085350e-006
 632,122.44,4.912168e-003,60.00000,8.084892e-006
 634,122.844,4.927795e-003,60.00000,8.083983e-006
 636,123.25,4.944403e-003,60.00000,8.084686e-006
 638,123.656,4.960734e-003,60.00000,8.084956e-006
 640,124.061,4.977795e-003,60.00000,8.086403e-006
 642,124.465,4.994950e-003,60.00000,8.088010e-006
 644,124.869,5.012571e-003,60.00000,8.090351e-006
 646,125.276,5.031390e-003,60.00000,8.094653e-006
 648,125.682,5.050254e-003,60.00000,8.098985e-006
 650,126.09,5.068020e-003,60.00000,8.101537e-006
 652,126.499,5.085047e-003,60.00000,8.102860e-006
 654,126.908,5.101989e-003,60.00000,8.104063e-006
 656,127.317,5.119548e-003,60.00000,8.106177e-006
 658,127.731,5.137467e-003,60.00000,8.108897e-006
 660,128.15,5.155963e-003,60.00000,8.112569e-006
 662,128.568,5.173551e-003,60.00000,8.114710e-006
 664,128.984,5.190481e-003,60.00000,8.115772e-006
 666,129.4,5.207542e-003,60.00000,8.117068e-006
 668,129.815,5.224415e-003,60.00000,8.118048e-006
 670,130.226,5.240902e-003,60.00000,8.118508e-006
 672,130.633,5.257410e-003,60.00000,8.118906e-006
 674,131.04,5.274062e-003,60.00000,8.119542e-006
 676,131.451,5.292218e-003,60.00000,8.122488e-006
 678,131.865,5.310501e-003,60.00000,8.125673e-006
 680,132.276,5.328599e-003,60.00000,8.128524e-006
 682,132.682,5.345312e-003,60.00000,8.129191e-006
 684,133.085,5.362717e-003,60.00000,8.130974e-006
 686,133.488,5.380248e-003,60.00000,8.132885e-006
 688,133.892,5.398090e-003,60.00000,8.135305e-006
 690,134.297,5.416330e-003,60.00000,8.138223e-006
 692,134.691,5.433788e-003,60.00000,8.140115e-006
 694,135.068,5.450131e-003,60.00000,8.140135e-006
 696,135.443,5.467528e-003,60.00000,8.141815e-006
 698,135.832,5.485914e-003,60.00000,8.144874e-006
 700,136.239,5.504562e-003,60.00000,8.148424e-006
 702,136.662,5.522842e-003,60.00000,8.151466e-006
 704,137.088,5.540673e-003,60.00000,8.153747e-006
 706,137.504,5.558301e-003,60.00000,8.155711e-006
 708,137.907,5.575409e-003,60.00000,8.156898e-006
 710,138.3,5.592201e-003,60.00000,8.157555e-006
 712,138.69,5.610323e-003,60.00000,8.160195e-006
 714,139.078,5.629046e-003,60.00000,8.163673e-006
 716,139.474,5.648172e-003,60.00000,8.167836e-006
 718,139.876,5.667638e-003,60.00000,8.172328e-006
 720,140.285,5.686557e-003,60.00000,8.176048e-006
 722,140.697,5.705083e-003,60.00000,8.179231e-006
 724,141.106,5.722769e-003,60.00000,8.181130e-006
 726,141.51,5.739703e-003,60.00000,8.181946e-006
 728,141.909,5.757422e-003,60.00000,8.183899e-006
 730,142.305,5.775628e-003,60.00000,8.186470e-006
 732,142.702,5.793186e-003,60.00000,8.188158e-006
 734,143.099,5.811511e-003,60.00000,8.190991e-006
 736,143.495,5.829944e-003,60.00000,8.193891e-006
 738,143.89,5.848115e-003,60.00000,8.196404e-006
 740,144.285,5.866571e-003,60.00000,8.199240e-006
 742,144.68,5.884512e-003,60.00000,8.201455e-006
 744,145.073,5.903058e-003,60.00000,8.204448e-006
 746,145.469,5.922424e-003,60.00000,8.208613e-006
 748,145.866,5.941742e-003,60.00000,8.212644e-006
 750,146.264,5.960906e-003,60.00000,8.216446e-006
 752,146.66,5.979469e-003,60.00000,8.219370e-006
 754,147.056,5.998596e-003,60.00000,8.223118e-006
 756,147.45,6.017843e-003,60.00000,8.226932e-006
 758,147.843,6.037404e-003,60.00000,8.231245e-006
 760,148.237,6.057176e-003,60.00000,8.235763e-006
 762,148.631,6.076802e-003,60.00000,8.240082e-006
 764,149.027,6.095655e-003,60.00000,8.243262e-006
 766,149.424,6.114826e-003,60.00000,8.246949e-006
 768,149.822,6.133603e-003,60.00000,8.250046e-006
 770,150.217,6.152377e-003,60.00000,8.253124e-006
 772,150.612,6.171497e-003,60.00000,8.256663e-006
 774,151.012,6.191355e-003,60.00000,8.261150e-006
 776,151.413,6.211331e-003,60.00000,8.265805e-006
 778,151.812,6.229631e-003,60.00000,8.268125e-006
 780,152.209,6.249512e-003,60.00000,8.272561e-006
 782,152.605,6.269876e-003,60.00000,8.277673e-006
 784,153.003,6.290745e-003,60.00000,8.283358e-006
 786,153.401,6.311800e-003,60.00000,8.289330e-006
 788,153.8,6.333422e-003,60.00000,8.295952e-006
 790,154.199,6.355133e-003,60.00000,8.302701e-006
 792,154.598,6.375895e-003,60.00000,8.308166e-006
 794,154.999,6.396055e-003,60.00000,8.312742e-006
 796,155.404,6.416307e-003,60.00000,8.317573e-006
 798,155.801,6.435899e-003,60.00000,8.321416e-006
 800,156.194,6.455582e-003,60.00000,8.325353e-006
 802,156.586,6.474769e-003,60.00000,8.328577e-006
 804,156.979,6.494314e-003,60.00000,8.332333e-006
 806,157.374,6.513998e-003,60.00000,8.336232e-006
 808,157.77,6.534620e-003,60.00000,8.341264e-006
 810,158.164,6.553935e-003,60.00000,8.344696e-006
 812,158.557,6.573140e-003,60.00000,8.347919e-006
 814,158.95,6.592917e-003,60.00000,8.351797e-006
 816,159.35,6.613951e-003,60.00000,8.357313e-006
 818,159.75,6.634061e-003,60.00000,8.361634e-006
 820,160.146,6.654056e-003,60.00000,8.365803e-006
 822,160.54,6.674005e-003,60.00000,8.369851e-006
 824,160.936,6.694439e-003,60.00000,8.374538e-006
 826,161.334,6.714408e-003,60.00000,8.378581e-006
 828,161.736,6.734378e-003,60.00000,8.382603e-006
 830,162.135,6.754017e-003,60.00000,8.386186e-006
 832,162.527,6.774426e-003,60.00000,8.390692e-006
 834,162.917,6.795786e-003,60.00000,8.396418e-006
 836,163.308,6.817591e-003,60.00000,8.402587e-006
 838,163.703,6.839082e-003,60.00000,8.408427e-006
 840,164.103,6.860113e-003,60.00000,8.413623e-006
 842,164.504,6.881249e-003,60.00000,8.418956e-006
 844,164.905,6.902550e-003,60.00000,8.424354e-006
 846,165.306,6.921399e-003,60.00000,8.426843e-006
 848,165.708,6.942280e-003,60.00000,8.431813e-006
 850,166.11,6.964842e-003,60.00000,8.438723e-006
 852,166.511,6.987544e-003,60.00000,8.445837e-006
 854,166.912,7.009278e-003,60.00000,8.451740e-006
 856,167.315,7.028844e-003,60.00000,8.454949e-006
 858,167.722,7.048434e-003,60.00000,8.458182e-006
 860,168.129,7.067772e-003,60.00000,8.461052e-006
 862,168.531,7.087757e-003,60.00000,8.464762e-006
 864,168.926,7.107103e-003,60.00000,8.467654e-006
 866,169.316,7.128419e-003,60.00000,8.472867e-006
 868,169.709,7.150057e-003,60.00000,8.478489e-006
 870,170.101,7.171062e-003,60.00000,8.483323e-006
 872,170.493,7.191916e-003,60.00000,8.487920e-006
 874,170.886,7.213692e-003,60.00000,8.493613e-006
 876,171.279,7.234846e-003,60.00000,8.498536e-006
 878,171.674,7.255905e-003,60.00000,8.503324e-006
 880,172.072,7.276247e-003,60.00000,8.507244e-006
 882,172.471,7.297474e-003,60.00000,8.512210e-006
 884,172.87,7.317954e-003,60.00000,8.516255e-006
 886,173.266,7.338592e-003,60.00000,8.520483e-006
 888,173.663,7.359626e-003,60.00000,8.525124e-006
 890,174.06,7.380425e-003,60.00000,8.529449e-006
 892,174.456,7.400509e-003,60.00000,8.532999e-006
 894,174.85,7.421403e-003,60.00000,8.537413e-006
 896,175.242,7.442129e-003,60.00000,8.541587e-006
 898,175.637,7.462738e-003,60.00000,8.545698e-006
 900,176.033,7.483410e-003,60.00000,8.549786e-006
 902,176.433,7.503619e-003,60.00000,8.553347e-006
 904,176.835,7.523667e-003,60.00000,8.556743e-006
 906,177.239,7.544591e-003,60.00000,8.561075e-006
 908,177.643,7.564425e-003,60.00000,8.564194e-006
 910,178.042,7.585445e-003,60.00000,8.568599e-006
 912,178.441,7.605879e-003,60.00000,8.572309e-006
 914,178.845,7.626979e-003,60.00000,8.576840e-006
 916,179.251,7.647942e-003,60.00000,8.581095e-006
 918,179.659,7.668477e-003,60.00000,8.584906e-006
 920,180.064,7.688691e-003,60.00000,8.588328e-006
 922,180.465,7.708892e-003,60.00000,8.591702e-006
 924,180.864,7.729639e-003,60.00000,8.595681e-006
 926,181.262,7.750797e-003,60.00000,8.600163e-006
 928,181.657,7.771076e-003,60.00000,8.603571e-006
 930,182.05,7.791381e-003,60.00000,8.607035e-006
 932,182.443,7.813028e-003,60.00000,8.611946e-006
 934,182.836,7.834109e-003,60.00000,8.616149e-006
 936,183.231,7.854772e-003,60.00000,8.619973e-006
 938,183.625,7.875914e-003,60.00000,8.624227e-006
 940,184.018,7.897069e-003,60.00000,8.628542e-006
 942,184.411,7.918363e-003,60.00000,8.632966e-006
 944,184.803,7.939229e-003,60.00000,8.636917e-006
 946,185.2,7.960667e-003,60.00000,8.641433e-006
 948,185.603,7.982089e-003,60.00000,8.645978e-006
 950,186.006,8.001947e-003,60.00000,8.648790e-006
 952,186.407,8.021725e-003,60.00000,8.651492e-006
 954,186.804,8.041084e-003,60.00000,8.653701e-006
 956,187.195,8.062056e-003,60.00000,8.657637e-006
 958,187.583,8.083095e-003,60.00000,8.661627e-006
 960,187.972,8.104662e-003,60.00000,8.666217e-006
 962,188.363,8.126156e-003,60.00000,8.670672e-006
 964,188.758,8.148041e-003,60.00000,8.675525e-006
 966,189.158,8.169497e-003,60.00000,8.679945e-006
 968,189.56,8.190975e-003,60.00000,8.684318e-006
 970,189.962,8.212664e-003,60.00000,8.688912e-006
 972,190.363,8.234717e-003,60.00000,8.693871e-006
 974,190.765,8.255589e-003,60.00000,8.697592e-006
 976,191.169,8.276026e-003,60.00000,8.700843e-006
 978,191.567,8.297124e-003,60.00000,8.704694e-006
 980,191.971,8.318745e-003,60.00000,8.709145e-006
 982,192.379,8.339447e-003,60.00000,8.712544e-006
 984,192.787,8.359897e-003,60.00000,8.715767e-006
 986,193.19,8.379976e-003,60.00000,8.718483e-006
 988,193.586,8.400038e-003,60.00000,8.721270e-006
 990,193.975,8.420243e-003,60.00000,8.724129e-006
 992,194.362,8.440930e-003,60.00000,8.727526e-006
 994,194.755,8.461975e-003,60.00000,8.731247e-006
 996,195.149,8.482686e-003,60.00000,8.734566e-006
 998,195.543,8.503390e-003,60.00000,8.737900e-006
1000,195.939,8.524040e-003,60.00000,8.741180e-006
1002,196.335,8.544548e-003,60.00000,8.744308e-006
1004,196.731,8.566131e-003,60.00000,8.748516e-006
1006,197.13,8.587090e-003,60.00000,8.752084e-006
1008,197.527,8.607698e-003,60.00000,8.755216e-006
1010,197.922,8.628345e-003,60.00000,8.758450e-006
1012,198.313,8.649390e-003,60.00000,8.762041e-006
1014,198.705,8.670441e-003,60.00000,8.765599e-006
1016,199.095,8.690587e-003,60.00000,8.768288e-006
1018,199.487,8.710740e-003,60.00000,8.770927e-006
1020,199.884,8.731217e-003,60.00000,8.773837e-006
1022,200.286,8.751239e-003,60.00000,8.776376e-006
1024,200.692,8.770806e-003,60.00000,8.778405e-006
1026,201.097,8.790780e-003,60.00000,8.780849e-006
1028,201.506,8.811056e-003,60.00000,8.783516e-006
1030,201.913,8.831488e-003,60.00000,8.786404e-006
1032,202.314,8.852493e-003,60.00000,8.789819e-006
1034,202.722,8.873737e-003,60.00000,8.793495e-006
1036,203.125,8.894550e-003,60.00000,8.796705e-006
1038,203.522,8.915191e-003,60.00000,8.799670e-006
1040,203.921,8.936746e-003,60.00000,8.803583e-006
1042,204.325,8.957745e-003,60.00000,8.806971e-006
1044,204.729,8.978273e-003,60.00000,8.809854e-006
1046,205.131,8.998563e-003,60.00000,8.812512e-006
1048,205.527,9.019125e-003,60.00000,8.815352e-006
1050,205.919,9.039395e-003,60.00000,8.817964e-006
1052,206.31,9.059844e-003,60.00000,8.820720e-006
1054,206.703,9.081626e-003,60.00000,8.824764e-006
1056,207.098,9.102701e-003,60.00000,8.828124e-006
1058,207.493,9.123936e-003,60.00000,8.831581e-006
1060,207.89,9.144416e-003,60.00000,8.834308e-006
1062,208.283,9.165564e-003,60.00000,8.837650e-006
1064,208.68,9.185737e-003,60.00000,8.840106e-006
1066,209.08,9.205019e-003,60.00000,8.841654e-006
1068,209.478,9.224241e-003,60.00000,8.843151e-006
1070,209.873,9.243407e-003,60.00000,8.844562e-006
1072,210.264,9.263480e-003,60.00000,8.846818e-006
1074,210.658,9.283082e-003,60.00000,8.848634e-006
1076,211.058,9.302267e-003,60.00000,8.850070e-006
1078,211.461,9.321172e-003,60.00000,8.851265e-006
1080,211.861,9.340638e-003,60.00000,8.852924e-006
1082,212.265,9.360416e-003,60.00000,8.854889e-006
1084,212.666,9.380645e-003,60.00000,8.857248e-006
1086,213.067,9.400624e-003,60.00000,8.859419e-006
1088,213.469,9.420349e-003,60.00000,8.861318e-006
1090,213.872,9.439801e-003,60.00000,8.862946e-006
1092,214.276,9.459508e-003,60.00000,8.864841e-006
1094,214.677,9.479216e-003,60.00000,8.866660e-006
1096,215.079,9.498732e-003,60.00000,8.868334e-006
1098,215.482,9.517748e-003,60.00000,8.869554e-006
1100,215.886,9.536200e-003,60.00000,8.870216e-006
1102,216.288,9.554510e-003,60.00000,8.870754e-006
1104,216.686,9.572717e-003,60.00000,8.871215e-006
1106,217.083,9.591024e-003,60.00000,8.871716e-006
1108,217.481,9.609319e-003,60.00000,8.872183e-006
1110,217.879,9.627983e-003,60.00000,8.873060e-006
1112,218.273,9.646303e-003,60.00000,8.873587e-006
1114,218.666,9.665623e-003,60.00000,8.875032e-006
1116,219.064,9.685266e-003,60.00000,8.876763e-006
1118,219.464,9.704404e-003,60.00000,8.878055e-006
1120,219.861,9.723241e-003,60.00000,8.879069e-006
1122,220.253,9.742206e-003,60.00000,8.880168e-006
1124,220.645,9.761521e-003,60.00000,8.881589e-006
1126,221.036,9.780656e-003,60.00000,8.882864e-006
1128,221.426,9.799877e-003,60.00000,8.884113e-006
1130,221.82,9.818572e-003,60.00000,8.885002e-006
1132,222.213,9.837289e-003,60.00000,8.885830e-006
1134,222.616,9.856518e-003,60.00000,8.887201e-006
1136,223.02,9.874658e-003,60.00000,8.887506e-006
1138,223.42,9.892763e-003,60.00000,8.887782e-006
1140,223.821,9.911602e-003,60.00000,8.888772e-006
1142,224.221,9.931013e-003,60.00000,8.890204e-006
1144,224.623,9.949319e-003,60.00000,8.890712e-006
1146,225.02,9.968054e-003,60.00000,8.891580e-006
1148,225.421,9.986794e-003,60.00000,8.892421e-006
1150,225.822,1.000554e-002,60.00000,8.893272e-006
1152,226.225,1.002390e-002,60.00000,8.893805e-006
1154,226.632,1.004244e-002,60.00000,8.894439e-006
1156,227.036,1.006104e-002,60.00000,8.895163e-006
1158,227.438,1.007899e-002,60.00000,8.895321e-006
1160,227.837,1.009746e-002,60.00000,8.895930e-006
1162,228.234,1.011596e-002,60.00000,8.896560e-006
1164,228.63,1.013401e-002,60.00000,8.896733e-006
1166,229.028,1.015230e-002,60.00000,8.897218e-006
1168,229.424,1.017032e-002,60.00000,8.897397e-006
1170,229.818,1.018901e-002,60.00000,8.898196e-006
1172,230.212,1.020791e-002,60.00000,8.899158e-006
1174,230.612,1.022664e-002,60.00000,8.899961e-006
1176,231.015,1.024447e-002,60.00000,8.900020e-006
1178,231.411,1.026205e-002,60.00000,8.899797e-006
1180,231.804,1.028028e-002,60.00000,8.900140e-006
1182,232.201,1.029790e-002,60.00000,8.900037e-006
1184,232.593,1.031600e-002,60.00000,8.900283e-006
1186,232.979,1.033524e-002,60.00000,8.901512e-006
1188,233.368,1.035447e-002,60.00000,8.902762e-006
1190,233.772,1.037273e-002,60.00000,8.903129e-006
1192,234.184,1.038992e-002,60.00000,8.902648e-006
1194,234.59,1.040671e-002,60.00000,8.901773e-006
1196,234.987,1.042395e-002,60.00000,8.901232e-006
1198,235.383,1.044172e-002,60.00000,8.901243e-006
1200,235.785,1.045941e-002,60.00000,8.901153e-006
1202,236.187,1.047706e-002,60.00000,8.901034e-006
1204,236.574,1.049541e-002,60.00000,8.901477e-006
1206,236.959,1.051437e-002,60.00000,8.902436e-006
1208,237.357,1.053373e-002,60.00000,8.903770e-006
1210,237.769,1.055266e-002,60.00000,8.904701e-006
1212,238.194,1.057099e-002,60.00000,8.905160e-006
1214,238.613,1.058828e-002,60.00000,8.904793e-006
1216,239.012,1.060519e-002,60.00000,8.904016e-006
1218,239.389,1.062411e-002,60.00000,8.904890e-006
1220,239.761,1.064444e-002,60.00000,8.906980e-006
1222,240.159,1.066432e-002,60.00000,8.908757e-006
1224,240.579,1.068191e-002,60.00000,8.908572e-006
1226,240.991,1.069938e-002,60.00000,8.908288e-006
1228,241.377,1.071689e-002,60.00000,8.908149e-006
1230,241.732,1.073543e-002,60.00000,8.908652e-006
1232,242.084,1.075654e-002,60.00000,8.911297e-006
1234,242.465,1.077760e-002,60.00000,8.913977e-006
1236,242.906,1.079576e-002,60.00000,8.914286e-006
1238,243.368,1.080978e-002,60.00000,8.911246e-006
1240,243.773,1.082480e-002,60.00000,8.908990e-006
1242,244.116,1.084392e-002,60.00000,8.909987e-006
1244,244.439,1.086493e-002,60.00000,8.912518e-006
1246,244.777,1.088817e-002,60.00000,8.916897e-006
1248,245.153,1.090990e-002,60.00000,8.920104e-006
1250,245.597,1.092882e-002,60.00000,8.921012e-006
1252,246.129,1.094416e-002,60.00000,8.919066e-006
1254,246.638,1.095636e-002,60.00000,8.914556e-006
1256,247.054,1.097177e-002,60.00000,8.912640e-006
1258,247.395,1.099034e-002,60.00000,8.913201e-006
1260,247.701,1.101248e-002,60.00000,8.916572e-006
1262,248.01,1.103685e-002,60.00000,8.921803e-006
1264,248.343,1.105978e-002,60.00000,8.925906e-006
1266,248.73,1.108124e-002,60.00000,8.928816e-006
1268,249.214,1.109913e-002,60.00000,8.928878e-006
1270,249.812,1.110948e-002,60.00000,8.922985e-006
1272,250.313,1.111909e-002,60.00000,8.916435e-006
1274,250.689,1.113483e-002,60.00000,8.914791e-006
1276,251.002,1.115514e-002,60.00000,8.916603e-006
1278,251.302,1.117850e-002,60.00000,8.920966e-006
1280,251.617,1.120218e-002,60.00000,8.925559e-006
1282,251.97,1.122455e-002,60.00000,8.929149e-006
1284,252.406,1.124464e-002,60.00000,8.930930e-006
1286,252.98,1.125660e-002,60.00000,8.926374e-006
1288,253.518,1.126624e-002,60.00000,8.920017e-006
1290,253.893,1.127967e-002,60.00000,8.916593e-006
1292,254.186,1.129972e-002,60.00000,8.918174e-006
1294,254.461,1.132255e-002,60.00000,8.921984e-006
1296,254.752,1.134610e-002,60.00000,8.926428e-006
1298,255.08,1.136926e-002,60.00000,8.930596e-006
1300,255.473,1.138879e-002,60.00000,8.931922e-006
1302,255.977,1.140359e-002,60.00000,8.929576e-006
1304,256.599,1.141024e-002,60.00000,8.920927e-006
1306,257.073,1.141902e-002,60.00000,8.914067e-006
1308,257.397,1.143486e-002,60.00000,8.912347e-006
1310,257.678,1.145746e-002,60.00000,8.915882e-006
1312,257.961,1.148168e-002,60.00000,8.920841e-006
1314,258.27,1.150400e-002,60.00000,8.924264e-006
1316,258.624,1.152205e-002,60.00000,8.924458e-006
1318,259.051,1.153749e-002,60.00000,8.922592e-006
1320,259.59,1.154858e-002,60.00000,8.917383e-006
1322,260.215,1.155461e-002,60.00000,8.908390e-006
1324,260.655,1.156433e-002,60.00000,8.902364e-006
1326,260.964,1.158253e-002,60.00000,8.902429e-006
1328,261.247,1.160428e-002,60.00000,8.905318e-006
1330,261.543,1.162605e-002,60.00000,8.908316e-006
1332,261.874,1.164687e-002,60.00000,8.910637e-006
1334,262.256,1.166437e-002,60.00000,8.910431e-006
1336,262.701,1.167670e-002,60.00000,8.906234e-006
1338,263.225,1.168518e-002,60.00000,8.899110e-006
1340,263.835,1.168788e-002,60.00000,8.887630e-006
1342,264.538,1.168657e-002,60.00000,8.873204e-006
1344,264.946,1.168668e-002,60.00000,8.860511e-006
1346,265.164,1.170246e-002,60.00000,8.858439e-006
1348,265.355,1.172526e-002,60.00000,8.861957e-006
1350,265.55,1.175088e-002,60.00000,8.867763e-006
1352,265.767,1.177528e-002,60.00000,8.872754e-006
1354,266.025,1.179714e-002,60.00000,8.875891e-006
1356,266.346,1.181433e-002,60.00000,8.875569e-006
1358,266.744,1.182396e-002,60.00000,8.869592e-006
1360,267.198,1.182925e-002,60.00000,8.860272e-006
1362,267.678,1.183253e-002,60.00000,8.849471e-006
1364,268.155,1.183597e-002,60.00000,8.838721e-006
1366,268.625,1.183920e-002,60.00000,8.827954e-006
1368,269.085,1.184359e-002,60.00000,8.818077e-006
1370,269.538,1.184732e-002,60.00000,8.807637e-006
1372,269.985,1.185147e-002,60.00000,8.797629e-006
1374,270.427,1.185463e-002,60.00000,8.786892e-006
1376,270.839,1.185781e-002,60.00000,8.776299e-006
1378,271.214,1.186480e-002,60.00000,8.768369e-006
1380,271.579,1.187341e-002,60.00000,8.761726e-006
1382,271.953,1.188152e-002,60.00000,8.754739e-006
1384,272.339,1.188855e-002,60.00000,8.746943e-006
1386,272.747,1.189369e-002,60.00000,8.737885e-006
1388,273.161,1.189734e-002,60.00000,8.727684e-006
1390,273.581,1.190182e-002,60.00000,8.718195e-006
1392,274.002,1.190417e-002,60.00000,8.707126e-006
1394,274.416,1.190823e-002,60.00000,8.697331e-006
1396,274.821,1.191208e-002,60.00000,8.687451e-006
1398,275.211,1.191559e-002,60.00000,8.677306e-006
1400,275.589,1.192150e-002,60.00000,8.668893e-006