File: 李院长 MgO-C C15-骨 1400-200 @ S1-2.csv
#EXPORTTYPE:       ,DATA ALL
#FILE:             ,李院长 MgO-C C15-骨 C15-基 1400.ngb-dl9
#FORMAT:           ,NETZSCH5
#FTYPE:            ,ANSI
#IDENTITY:         ,C15-骨
#DECIMAL:          ,POINT
#SEPARATOR:        ,COMMA
#MTYPE:            ,DIL
#INSTRUMENT:       ,NETZSCH DIL 402SU
#PROJECT:          ,123
#DATE/TIME:        ,2025/6/5 17:20:27 (UTC+8)
#CORR. FILE:       ,石墨炉 1400度-1.ngb-cl9
#TEMPCAL:          ,TCALZERO.TMX
#LABORATORY:       ,wust
#OPERATOR:         ,
#REMARK:           ,
#SAMPLE:           ,镁碳
#SAMPLE LENGTH /mm:,25.96
#MATERIAL:         ,镁碳
#MEASMODE:         ,Standard Expansion
#M.RANGE /μm:      ,50000
#CORR. CODE:       ,080
#RANGE:            ,1403°C/5.0(K/min)/200°C
#SEGMENT:          ,S2/2
#SEG. 2:           ,1403°C/5.0(K/min)/200°C
#Tref:             ,210.0°C

##Temp./°C,Time/min,dL/Lo,Force/N,Gas Flow(protective)/(ml/min),m. CTE(2)/(1/K)
 201.07,516.183,-6.003182e-006,0.29999,60.00000,5.330120e-006
 203.07,515.78, 5.319564e-006,0.29999,60.00000,5.238095e-006
 205.07,515.371, 1.629536e-005,0.30003,60.00000,5.077190e-006
 207.07,514.969, 2.717239e-005,0.30001,60.00000,4.918981e-006
 209.07,514.582, 3.713337e-005,0.29999,60.00000,4.766788e-006
 211.07,514.204, 4.663508e-005,0.30002,60.00000,4.617817e-006
 213.07,513.82, 5.546756e-005,0.29998,60.00000,4.466993e-006
 215.07,513.423, 6.348659e-005,0.29998,60.00000,4.311310e-006
 217.07,513.014, 7.150828e-005,0.29996,60.00000,4.231935e-006
 219.07,512.612, 8.178471e-005,0.30003,60.00000,4.431761e-006
 221.07,512.225, 9.176777e-005,0.30000,60.00000,4.532969e-006
 223.07,511.848, 1.013838e-004,0.30001,60.00000,4.574160e-006
 225.07,511.464, 1.098996e-004,0.29999,60.00000,4.530633e-006
 227.07,511.063, 1.186311e-004,0.29998,60.00000,4.511837e-006
 229.07,510.651, 1.296470e-004,0.29999,60.00000,4.617596e-006
 231.07,510.248, 1.406933e-004,0.30000,60.00000,4.704459e-006
 233.07,509.861, 1.513220e-004,0.29997,60.00000,4.757652e-006
 235.07,509.481, 1.617091e-004,0.30001,60.00000,4.790554e-006
 237.07,509.093, 1.719349e-004,0.29999,60.00000,4.814020e-006
 239.07,508.689, 1.822339e-004,0.29999,60.00000,4.838144e-006
 241.07,508.279, 1.939159e-004,0.30001,60.00000,4.902570e-006
 243.07,507.881, 2.048736e-004,0.30000,60.00000,4.937908e-006
 245.07,507.497, 2.153875e-004,0.29999,60.00000,4.955078e-006
 247.07,507.115, 2.240906e-004,0.30001,60.00000,4.922927e-006
 249.07,506.724, 2.339234e-004,0.29999,60.00000,4.922824e-006
 251.07,506.323, 2.449076e-004,0.30002,60.00000,4.950427e-006
 253.07,505.921, 2.540786e-004,0.30000,60.00000,4.933768e-006
 255.07,505.528, 2.646370e-004,0.30000,60.00000,4.949045e-006
 257.07,505.141, 2.732870e-004,0.29999,60.00000,4.922434e-006
 259.07,504.75, 2.837013e-004,0.30002,60.00000,4.933587e-006
 261.07,504.353, 2.950549e-004,0.30003,60.00000,4.963140e-006
 263.07,503.953, 3.072079e-004,0.29998,60.00000,5.005192e-006
 265.07,503.561, 3.193279e-004,0.29999,60.00000,5.043335e-006
 267.07,503.174, 3.299723e-004,0.29999,60.00000,5.053067e-006
 269.07,502.784, 3.406515e-004,0.29997,60.00000,5.062519e-006
 271.07,502.385, 3.525778e-004,0.29998,60.00000,5.091943e-006
 273.07,501.983, 3.639112e-004,0.29997,60.00000,5.110638e-006
 275.07,501.587, 3.740373e-004,0.30001,60.00000,5.108776e-006
 277.07,501.198, 3.817261e-004,0.29999,60.00000,5.071239e-006
 279.07,500.81, 3.914361e-004,0.29999,60.00000,5.064690e-006
 281.07,500.415, 4.021867e-004,0.29998,60.00000,5.073915e-006
 283.07,500.014, 4.119374e-004,0.29997,60.00000,5.068543e-006
 285.07,499.612, 4.228292e-004,0.29985,60.00000,5.078452e-006
 287.07,499.216, 4.341623e-004,0.30000,60.00000,5.094130e-006
 289.07,498.827, 4.455994e-004,0.30001,60.00000,5.109657e-006
 291.07,498.441, 4.506260e-004,0.30001,60.00000,5.045602e-006
 293.07,498.054, 4.619774e-004,0.29999,60.00000,5.060641e-006
 295.07,497.664, 4.737769e-004,0.29997,60.00000,5.080645e-006
 297.07,497.27, 4.851393e-004,0.30000,60.00000,5.093962e-006
 299.07,496.872, 4.962990e-004,0.29999,60.00000,5.104962e-006
 301.07,496.477, 5.080530e-004,0.30001,60.00000,5.122090e-006
 303.07,496.087, 5.197809e-004,0.29999,60.00000,5.138036e-006
 305.07,495.702, 5.299936e-004,0.30002,60.00000,5.137344e-006
 307.07,495.32, 5.412194e-004,0.29998,60.00000,5.147163e-006
 309.07,494.936, 5.500104e-004,0.30000,60.00000,5.131897e-006
 311.07,494.548, 5.612822e-004,0.29998,60.00000,5.141854e-006
 313.07,494.154, 5.730058e-004,0.30001,60.00000,5.155568e-006
 315.07,493.757, 5.836612e-004,0.29999,60.00000,5.159332e-006
 317.07,493.363, 5.956040e-004,0.30000,60.00000,5.174363e-006
 319.07,492.973, 6.076574e-004,0.30001,60.00000,5.189818e-006
 321.07,492.587, 6.204910e-004,0.29996,60.00000,5.211972e-006
 323.07,492.203, 6.318062e-004,0.30002,60.00000,5.219679e-006
 325.07,491.816, 6.436098e-004,0.29998,60.00000,5.231575e-006
 327.07,491.421, 6.551198e-004,0.29997,60.00000,5.240591e-006
 329.07,491.021, 6.668170e-004,0.30001,60.00000,5.250956e-006
 331.07,490.62, 6.776145e-004,0.30002,60.00000,5.253428e-006
 333.07,490.225, 6.908871e-004,0.30009,60.00000,5.275954e-006
 335.07,489.837, 7.030164e-004,0.30000,60.00000,5.288363e-006
 337.07,489.45, 7.161359e-004,0.30002,60.00000,5.308237e-006
 339.07,489.062, 7.287757e-004,0.30001,60.00000,5.323972e-006
 341.07,488.667, 7.353007e-004,0.29999,60.00000,5.292398e-006
 343.07,488.269, 7.481358e-004,0.30000,60.00000,5.309339e-006
 345.07,487.87, 7.592350e-004,0.30000,60.00000,5.313347e-006
 347.07,487.476, 7.717748e-004,0.30000,60.00000,5.327206e-006
 349.07,487.087, 7.844968e-004,0.29999,60.00000,5.342085e-006
 351.07,486.697, 7.972864e-004,0.30001,60.00000,5.356856e-006
 353.07,486.305, 8.095990e-004,0.30000,60.00000,5.367864e-006
 355.07,485.91, 8.200479e-004,0.30000,60.00000,5.366161e-006
 357.07,485.513, 8.317257e-004,0.29998,60.00000,5.372434e-006
 359.07,485.117, 8.425492e-004,0.30001,60.00000,5.372990e-006
 361.07,484.722, 8.548551e-004,0.30003,60.00000,5.383334e-006
 363.07,484.328, 8.677518e-004,0.30001,60.00000,5.397184e-006
 365.07,483.935, 8.801568e-004,0.30001,60.00000,5.407614e-006
 367.07,483.542, 8.922030e-004,0.30001,60.00000,5.415367e-006
 369.07,483.148, 9.042205e-004,0.30001,60.00000,5.422999e-006
 371.07,482.756, 9.165750e-004,0.30000,60.00000,5.432246e-006
 373.07,482.363, 9.291376e-004,0.29999,60.00000,5.442750e-006
 375.07,481.972, 9.420008e-004,0.29999,60.00000,5.454698e-006
 377.07,481.582, 9.510200e-004,0.29999,60.00000,5.443442e-006
 379.07,481.193, 9.640548e-004,0.29999,60.00000,5.456108e-006
 381.07,480.804, 9.764432e-004,0.30000,60.00000,5.464771e-006
 383.07,480.416, 9.888045e-004,0.30000,60.00000,5.472982e-006
 385.07,480.026, 1.001635e-003,0.30002,60.00000,5.483635e-006
 387.07,479.634, 1.011439e-003,0.30001,60.00000,5.477171e-006
 389.07,479.244, 1.024307e-003,0.30000,60.00000,5.487917e-006
 391.07,478.854, 1.036513e-003,0.30000,60.00000,5.494902e-006
 393.07,478.466, 1.049029e-003,0.30003,60.00000,5.502906e-006
 395.07,478.077, 1.059911e-003,0.30002,60.00000,5.502337e-006
 397.07,477.686, 1.072284e-003,0.29998,60.00000,5.509605e-006
 399.07,477.293, 1.085891e-003,0.30000,60.00000,5.523355e-006
 401.07,476.9, 1.099294e-003,0.30002,60.00000,5.535806e-006
 403.07,476.508, 1.112491e-003,0.29998,60.00000,5.546656e-006
 405.07,476.115, 1.125894e-003,0.29997,60.00000,5.558496e-006
 407.07,475.724, 1.137492e-003,0.29999,60.00000,5.560922e-006
 409.07,475.334, 1.150880e-003,0.29997,60.00000,5.572338e-006
 411.07,474.944, 1.164560e-003,0.30001,60.00000,5.584938e-006
 413.07,474.554, 1.178053e-003,0.30001,60.00000,5.596366e-006
 415.07,474.163, 1.191469e-003,0.29998,60.00000,5.607166e-006
 417.07,473.768, 1.202332e-003,0.29997,60.00000,5.605464e-006
 419.07,473.373, 1.212293e-003,0.29997,60.00000,5.599598e-006
 421.07,472.979, 1.224132e-003,0.30007,60.00000,5.602588e-006
 423.07,472.586, 1.237896e-003,0.29999,60.00000,5.614486e-006
 425.07,472.195, 1.251556e-003,0.30002,60.00000,5.625912e-006
 427.07,471.803, 1.264981e-003,0.30000,60.00000,5.635941e-006
 429.07,471.409, 1.279011e-003,0.30003,60.00000,5.648368e-006
 431.07,471.012, 1.292327e-003,0.29999,60.00000,5.657672e-006
 433.07,470.613, 1.306557e-003,0.29999,60.00000,5.670696e-006
 435.07,470.217, 1.321068e-003,0.30002,60.00000,5.684759e-006
 437.07,469.822, 1.334345e-003,0.30001,60.00000,5.693226e-006
 439.07,469.43, 1.348062e-003,0.30000,60.00000,5.703336e-006
 441.07,469.035, 1.361101e-003,0.29998,60.00000,5.710518e-006
 443.07,468.638, 1.371706e-003,0.29999,60.00000,5.706946e-006
 445.07,468.239, 1.384961e-003,0.30000,60.00000,5.714682e-006
 447.07,467.841, 1.399138e-003,0.29998,60.00000,5.726379e-006
 449.07,467.447, 1.412851e-003,0.30000,60.00000,5.735781e-006
 451.07,467.056, 1.425795e-003,0.30000,60.00000,5.741959e-006
 453.07,466.667, 1.438322e-003,0.30001,60.00000,5.746240e-006
 455.07,466.278, 1.451522e-003,0.30001,60.00000,5.753092e-006
 457.07,465.89, 1.464068e-003,0.29997,60.00000,5.757415e-006
 459.07,465.5, 1.477352e-003,0.29999,60.00000,5.764436e-006
 461.07,465.111, 1.489537e-003,0.30022,60.00000,5.767191e-006
 463.07,464.72, 1.502712e-003,0.29999,60.00000,5.773419e-006
 465.07,464.328, 1.516646e-003,0.29997,60.00000,5.782982e-006
 467.07,463.937, 1.530059e-003,0.29997,60.00000,5.790094e-006
 469.07,463.545, 1.543904e-003,0.29999,60.00000,5.798961e-006
 471.07,463.153, 1.558683e-003,0.29998,60.00000,5.811058e-006
 473.07,462.762, 1.573130e-003,0.30000,60.00000,5.821841e-006
 475.07,462.371, 1.586784e-003,0.29999,60.00000,5.829424e-006
 477.07,461.981, 1.600879e-003,0.30000,60.00000,5.838393e-006
 479.07,461.588, 1.614844e-003,0.30001,60.00000,5.846949e-006
 481.07,461.194, 1.625903e-003,0.29999,60.00000,5.844727e-006
 483.07,460.797, 1.640394e-003,0.30001,60.00000,5.854941e-006
 485.07,460.4, 1.654759e-003,0.29998,60.00000,5.864619e-006
 487.07,460.005, 1.669441e-003,0.29998,60.00000,5.875180e-006
 489.07,459.612, 1.684045e-003,0.29999,60.00000,5.885411e-006
 491.07,459.219, 1.698123e-003,0.29999,60.00000,5.893660e-006
 493.07,458.826, 1.712168e-003,0.29998,60.00000,5.901619e-006
 495.07,458.429, 1.726989e-003,0.29999,60.00000,5.912180e-006
 497.07,458.03, 1.741266e-003,0.29997,60.00000,5.920790e-006
 499.07,457.632, 1.755515e-003,0.29995,60.00000,5.929128e-006
 501.07,457.235, 1.769577e-003,0.29999,60.00000,5.936684e-006
 503.07,456.84, 1.784433e-003,0.30000,60.00000,5.946826e-006
 505.07,456.445, 1.798843e-003,0.29998,60.00000,5.955357e-006
 507.07,456.048, 1.813781e-003,0.30001,60.00000,5.965562e-006
 509.07,455.651, 1.827708e-003,0.30002,60.00000,5.972166e-006
 511.07,455.251, 1.840149e-003,0.30001,60.00000,5.973839e-006
 513.07,454.85, 1.855315e-003,0.29999,60.00000,5.984502e-006
 515.07,454.451, 1.869878e-003,0.30002,60.00000,5.993045e-006
 517.07,454.054, 1.883748e-003,0.30000,60.00000,5.999206e-006
 519.07,453.658, 1.898682e-003,0.29999,60.00000,6.008614e-006
 521.07,453.262, 1.912501e-003,0.30000,60.00000,6.014416e-006
 523.07,452.865, 1.927168e-003,0.29998,60.00000,6.022859e-006
 525.07,452.466, 1.941531e-003,0.29999,60.00000,6.030127e-006
 527.07,452.065, 1.956218e-003,0.29999,60.00000,6.038514e-006
 529.07,451.667, 1.970221e-003,0.29999,60.00000,6.044541e-006
 531.07,451.274, 1.984603e-003,0.30003,60.00000,6.051726e-006
 533.07,450.885, 1.998982e-003,0.29999,60.00000,6.058663e-006
 535.07,450.495, 2.013936e-003,0.29979,60.00000,6.067423e-006
 537.07,450.101, 2.028370e-003,0.29995,60.00000,6.074444e-006
 539.07,449.703, 2.043543e-003,0.30000,60.00000,6.083636e-006
 541.07,449.303, 2.058534e-003,0.29999,60.00000,6.092192e-006
 543.07,448.903, 2.074575e-003,0.30002,60.00000,6.103768e-006
 545.07,448.507, 2.090164e-003,0.30000,60.00000,6.113881e-006
 547.07,448.112, 2.106062e-003,0.30001,60.00000,6.124705e-006
 549.07,447.716, 2.119751e-003,0.29999,60.00000,6.128917e-006
 551.07,447.319, 2.129539e-003,0.30000,60.00000,6.121762e-006
 553.07,446.92, 2.144285e-003,0.29999,60.00000,6.128947e-006
 555.07,446.517, 2.154640e-003,0.29999,60.00000,6.123496e-006
 557.07,446.114, 2.170410e-003,0.29999,60.00000,6.133767e-006
 559.07,445.711, 2.186416e-003,0.29999,60.00000,6.144367e-006
 561.07,445.308, 2.201564e-003,0.30001,60.00000,6.152504e-006
 563.07,444.909, 2.217090e-003,0.29999,60.00000,6.161700e-006
 565.07,444.51, 2.232364e-003,0.29999,60.00000,6.169891e-006
 567.07,444.108, 2.247122e-003,0.30001,60.00000,6.176777e-006
 569.07,443.704, 2.262334e-003,0.29999,60.00000,6.184657e-006
 571.07,443.3, 2.277716e-003,0.30000,60.00000,6.193070e-006
 573.07,442.894, 2.293965e-003,0.29990,60.00000,6.203599e-006
 575.07,442.491, 2.310598e-003,0.30000,60.00000,6.215268e-006
 577.07,442.091, 2.326604e-003,0.30000,60.00000,6.224996e-006
 579.07,441.688, 2.342613e-003,0.29999,60.00000,6.234634e-006
 581.07,441.283, 2.356599e-003,0.30001,60.00000,6.238740e-006
 583.07,440.876, 2.373073e-003,0.30000,60.00000,6.249367e-006
 585.07,440.467, 2.388760e-003,0.29999,60.00000,6.257980e-006
 587.07,440.058, 2.404963e-003,0.30000,60.00000,6.267686e-006
 589.07,439.654, 2.420476e-003,0.29998,60.00000,6.275610e-006
 591.07,439.255, 2.436748e-003,0.30000,60.00000,6.285268e-006
 593.07,438.859, 2.453131e-003,0.29996,60.00000,6.295299e-006
 595.07,438.464, 2.469030e-003,0.30001,60.00000,6.303897e-006
 597.07,438.068, 2.484585e-003,0.30002,60.00000,6.311496e-006
 599.07,437.67, 2.499065e-003,0.29998,60.00000,6.316312e-006
 601.07,437.271, 2.514585e-003,0.30001,60.00000,6.323621e-006
 603.07,436.872, 2.530108e-003,0.29997,60.00000,6.331024e-006
 605.07,436.472, 2.545425e-003,0.30004,60.00000,6.337691e-006
 607.07,436.073, 2.561068e-003,0.29999,60.00000,6.345144e-006
 609.07,435.674, 2.576417e-003,0.30001,60.00000,6.351746e-006
 611.07,435.272, 2.592107e-003,0.29999,60.00000,6.359162e-006
 613.07,434.866, 2.607544e-003,0.30000,60.00000,6.365951e-006
 615.07,434.459, 2.623853e-003,0.30000,60.00000,6.374838e-006
 617.07,434.053, 2.639335e-003,0.29999,60.00000,6.381555e-006
 619.07,433.647, 2.648646e-003,0.30001,60.00000,6.373127e-006
 621.07,433.24, 2.665419e-003,0.30001,60.00000,6.382904e-006
 623.07,432.832, 2.682685e-003,0.30000,60.00000,6.393813e-006
 625.07,432.426, 2.700465e-003,0.29999,60.00000,6.405840e-006
 627.07,432.024, 2.716520e-003,0.29997,60.00000,6.413648e-006
 629.07,431.625, 2.733329e-003,0.29995,60.00000,6.423118e-006
 631.07,431.226, 2.750310e-003,0.30001,60.00000,6.432911e-006
 633.07,430.826, 2.766978e-003,0.29998,60.00000,6.441962e-006
 635.07,430.426, 2.783984e-003,0.30002,60.00000,6.451638e-006
 637.07,430.025, 2.800504e-003,0.30001,60.00000,6.460079e-006
 639.07,429.622, 2.816981e-003,0.29992,60.00000,6.468411e-006
 641.07,429.219, 2.834063e-003,0.30002,60.00000,6.477987e-006
 643.07,428.814, 2.848751e-003,0.29998,60.00000,6.481961e-006
 645.07,428.407, 2.864761e-003,0.30001,60.00000,6.489047e-006
 647.07,428.002, 2.882387e-003,0.30001,60.00000,6.499609e-006
 649.07,427.596, 2.899721e-003,0.29997,60.00000,6.509572e-006
 651.07,427.194, 2.916863e-003,0.30000,60.00000,6.518849e-006
 653.07,426.796, 2.934571e-003,0.29998,60.00000,6.529382e-006
 655.07,426.4, 2.951453e-003,0.29999,60.00000,6.538004e-006
 657.07,426.002, 2.965820e-003,0.30003,60.00000,6.540828e-006
 659.07,425.603, 2.981248e-003,0.30000,60.00000,6.546112e-006
 661.07,425.204, 2.998702e-003,0.30002,60.00000,6.555766e-006
 663.07,424.804, 3.015841e-003,0.29999,60.00000,6.564661e-006
 665.07,424.402, 3.031359e-003,0.30001,60.00000,6.569930e-006
 667.07,424.002, 3.047940e-003,0.29999,60.00000,6.577445e-006
 669.07,423.603, 3.064559e-003,0.29996,60.00000,6.584981e-006
 671.07,423.205, 3.081676e-003,0.30003,60.00000,6.593552e-006
 673.07,422.807, 3.099112e-003,0.30000,60.00000,6.602705e-006
 675.07,422.409, 3.116777e-003,0.30002,60.00000,6.612253e-006
 677.07,422.006, 3.134367e-003,0.30001,60.00000,6.621649e-006
 679.07,421.603, 3.151935e-003,0.29999,60.00000,6.630826e-006
 681.07,421.201, 3.169424e-003,0.29999,60.00000,6.639819e-006
 683.07,420.801, 3.187035e-003,0.29998,60.00000,6.649025e-006
 685.07,420.403, 3.204363e-003,0.29999,60.00000,6.657516e-006
 687.07,420.009, 3.222768e-003,0.29997,60.00000,6.668143e-006
 689.07,419.614, 3.241249e-003,0.30000,60.00000,6.678844e-006
 691.07,419.217, 3.259477e-003,0.30000,60.00000,6.689008e-006
 693.07,418.817, 3.277128e-003,0.29998,60.00000,6.697852e-006
 695.07,418.416, 3.292656e-003,0.29999,60.00000,6.702254e-006
 697.07,418.013, 3.309543e-003,0.29999,60.00000,6.709430e-006
 699.07,417.609, 3.314931e-003,0.30004,60.00000,6.692999e-006
 701.07,417.204, 3.332929e-003,0.29998,60.00000,6.702411e-006
 703.07,416.799, 3.350539e-003,0.29990,60.00000,6.710921e-006
 705.07,416.396, 3.368686e-003,0.30000,60.00000,6.720424e-006
 707.07,415.994, 3.386527e-003,0.29999,60.00000,6.729336e-006
 709.07,415.591, 3.404407e-003,0.30001,60.00000,6.738169e-006
 711.07,415.187, 3.421763e-003,0.29999,60.00000,6.745874e-006
 713.07,414.784, 3.438735e-003,0.30001,60.00000,6.752819e-006
 715.07,414.381, 3.457286e-003,0.30002,60.00000,6.762799e-006
 717.07,413.979, 3.475116e-003,0.30000,60.00000,6.771346e-006
 719.07,413.575, 3.492720e-003,0.29999,60.00000,6.779275e-006
 721.07,413.173, 3.509376e-003,0.29997,60.00000,6.785320e-006
 723.07,412.772, 3.525016e-003,0.29999,60.00000,6.789324e-006
 725.07,412.374, 3.542313e-003,0.29998,60.00000,6.796615e-006
 727.07,411.977, 3.560270e-003,0.30000,60.00000,6.805041e-006
 729.07,411.581, 3.577653e-003,0.30000,60.00000,6.812298e-006
 731.07,411.185, 3.595062e-003,0.30000,60.00000,6.819546e-006
 733.07,410.788, 3.612500e-003,0.29999,60.00000,6.826763e-006
 735.07,410.388, 3.630178e-003,0.29999,60.00000,6.834423e-006
 737.07,409.986, 3.647807e-003,0.30001,60.00000,6.841997e-006
 739.07,409.585, 3.665776e-003,0.30001,60.00000,6.850085e-006
 741.07,409.184, 3.683295e-003,0.30002,60.00000,6.857277e-006
 743.07,408.785, 3.700755e-003,0.30001,60.00000,6.864355e-006
 745.07,408.388, 3.717969e-003,0.29999,60.00000,6.870839e-006
 747.07,407.988, 3.735042e-003,0.29999,60.00000,6.877057e-006
 749.07,407.587, 3.752872e-003,0.30003,60.00000,6.884612e-006
 751.07,407.185, 3.770543e-003,0.30001,60.00000,6.891785e-006
 753.07,406.782, 3.788364e-003,0.29999,60.00000,6.899212e-006
 755.07,406.379, 3.806279e-003,0.30001,60.00000,6.906781e-006
 757.07,405.977, 3.824239e-003,0.29998,60.00000,6.914348e-006
 759.07,405.575, 3.842115e-003,0.29999,60.00000,6.921735e-006
 761.07,405.172, 3.860181e-003,0.30000,60.00000,6.929437e-006
 763.07,404.769, 3.879366e-003,0.30001,60.00000,6.939003e-006
 765.07,404.365, 3.898453e-003,0.29999,60.00000,6.948387e-006
 767.07,403.961, 3.917043e-003,0.30002,60.00000,6.956831e-006
 769.07,403.555, 3.935747e-003,0.29999,60.00000,6.965405e-006
 771.07,403.149, 3.953972e-003,0.30002,60.00000,6.973103e-006
 773.07,402.743, 3.972273e-003,0.30002,60.00000,6.980807e-006
 775.07,402.338, 3.990674e-003,0.29999,60.00000,6.988685e-006
 777.07,401.936, 4.009025e-003,0.30000,60.00000,6.996357e-006
 779.07,401.531, 4.027004e-003,0.29999,60.00000,7.003386e-006
 781.07,401.125, 4.043874e-003,0.29999,60.00000,7.008420e-006
 783.07,400.723, 4.061879e-003,0.29999,60.00000,7.015375e-006
 785.07,400.322, 4.080423e-003,0.30000,60.00000,7.023214e-006
 787.07,399.923, 4.097920e-003,0.30001,60.00000,7.029128e-006
 789.07,399.524, 4.113825e-003,0.29986,60.00000,7.032375e-006
 791.07,399.126, 4.132861e-003,0.30001,60.00000,7.040898e-006
 793.07,398.727, 4.151089e-003,0.30000,60.00000,7.048073e-006
 795.07,398.327, 4.169566e-003,0.29999,60.00000,7.055540e-006
 797.07,397.929, 4.187431e-003,0.29999,60.00000,7.061904e-006
 799.07,397.532, 4.205565e-003,0.30000,60.00000,7.068726e-006
 801.07,397.131, 4.222877e-003,0.30001,60.00000,7.074076e-006
 803.07,396.73, 4.240818e-003,0.30000,60.00000,7.080479e-006
 805.07,396.329, 4.258412e-003,0.30002,60.00000,7.086198e-006
 807.07,395.928, 4.276023e-003,0.29999,60.00000,7.092004e-006
 809.07,395.527, 4.293507e-003,0.30001,60.00000,7.097512e-006
 811.07,395.12, 4.310719e-003,0.30000,60.00000,7.102507e-006
 813.07,394.71, 4.328755e-003,0.29996,60.00000,7.108877e-006
 815.07,394.304, 4.346818e-003,0.30000,60.00000,7.115281e-006
 817.07,393.898, 4.365374e-003,0.29989,60.00000,7.122413e-006
 819.07,393.496, 4.384206e-003,0.30001,60.00000,7.129936e-006
 821.07,393.095, 4.402850e-003,0.29999,60.00000,7.137079e-006
 823.07,392.693, 4.421389e-003,0.30001,60.00000,7.144036e-006
 825.07,392.288, 4.440373e-003,0.29999,60.00000,7.151605e-006
 827.07,391.883, 4.459295e-003,0.29999,60.00000,7.159181e-006
 829.07,391.48, 4.478203e-003,0.30000,60.00000,7.166562e-006
 831.07,391.077, 4.496866e-003,0.30000,60.00000,7.173568e-006
 833.07,390.674, 4.515332e-003,0.29999,60.00000,7.180174e-006
 835.07,390.271, 4.533795e-003,0.30000,60.00000,7.186728e-006
 837.07,389.867, 4.552919e-003,0.30000,60.00000,7.194295e-006
 839.07,389.466, 4.571213e-003,0.30000,60.00000,7.200531e-006
 841.07,389.065, 4.589657e-003,0.29999,60.00000,7.206900e-006
 843.07,388.665, 4.607994e-003,0.30000,60.00000,7.213075e-006
 845.07,388.263, 4.626543e-003,0.29999,60.00000,7.219595e-006
 847.07,387.862, 4.645507e-003,0.30001,60.00000,7.226735e-006
 849.07,387.464, 4.664478e-003,0.29999,60.00000,7.233759e-006
 851.07,387.067, 4.683845e-003,0.30001,60.00000,7.241418e-006
 853.07,386.672, 4.702962e-003,0.29998,60.00000,7.248622e-006
 855.07,386.275, 4.722125e-003,0.29998,60.00000,7.255870e-006
 857.07,385.877, 4.740807e-003,0.29998,60.00000,7.262293e-006
 859.07,385.478, 4.759684e-003,0.30001,60.00000,7.269028e-006
 861.07,385.075, 4.778986e-003,0.29998,60.00000,7.276301e-006
 863.07,384.668, 4.797388e-003,0.29999,60.00000,7.282248e-006
 865.07,384.259, 4.815873e-003,0.30000,60.00000,7.288161e-006
 867.07,383.853, 4.833923e-003,0.30002,60.00000,7.293559e-006
 869.07,383.45, 4.853080e-003,0.29999,60.00000,7.300426e-006
 871.07,383.05, 4.872677e-003,0.30016,60.00000,7.307979e-006
 873.07,382.649, 4.892897e-003,0.29999,60.00000,7.316451e-006
 875.07,382.246, 4.912847e-003,0.29999,60.00000,7.324409e-006
 877.07,381.84, 4.932289e-003,0.30000,60.00000,7.331601e-006
 879.07,381.433, 4.951922e-003,0.30001,60.00000,7.339034e-006
 881.07,381.027, 4.971210e-003,0.29999,60.00000,7.345914e-006
 883.07,380.623, 4.991891e-003,0.29998,60.00000,7.354817e-006
 885.07,380.218, 5.012936e-003,0.30002,60.00000,7.364178e-006
 887.07,379.813, 5.033073e-003,0.29998,60.00000,7.372154e-006
 889.07,379.408, 5.053086e-003,0.29998,60.00000,7.379984e-006
 891.07,379, 5.072482e-003,0.29998,60.00000,7.386757e-006
 893.07,378.591, 5.092067e-003,0.29998,60.00000,7.393812e-006
 895.07,378.185, 5.111829e-003,0.30003,60.00000,7.401046e-006
 897.07,377.784, 5.133217e-003,0.30000,60.00000,7.410621e-006
 899.07,377.387, 5.153719e-003,0.30000,60.00000,7.418830e-006
 901.07,376.99, 5.174111e-003,0.29999,60.00000,7.426911e-006
 903.07,376.59, 5.195571e-003,0.29999,60.00000,7.436443e-006
 905.07,376.195, 5.216448e-003,0.30001,60.00000,7.445107e-006
 907.07,375.799, 5.238032e-003,0.30001,60.00000,7.454747e-006
 909.07,375.407, 5.259463e-003,0.29999,60.00000,7.463989e-006
 911.07,375.016, 5.279823e-003,0.30001,60.00000,7.471736e-006
 913.07,374.623, 5.300962e-003,0.29997,60.00000,7.480574e-006
 915.07,374.228, 5.321294e-003,0.30001,60.00000,7.488216e-006
 917.07,373.831, 5.341612e-003,0.29997,60.00000,7.495750e-006
 919.07,373.43, 5.361498e-003,0.29991,60.00000,7.502637e-006
 921.07,373.023, 5.382263e-003,0.30000,60.00000,7.510782e-006
 923.07,372.608, 5.402964e-003,0.30000,60.00000,7.518731e-006
 925.07,372.193, 5.423437e-003,0.29998,60.00000,7.526368e-006
 927.07,371.783, 5.444705e-003,0.29998,60.00000,7.535021e-006
 929.07,371.379, 5.465070e-003,0.29998,60.00000,7.542379e-006
 931.07,370.981, 5.486405e-003,0.29999,60.00000,7.551059e-006
 933.07,370.584, 5.507883e-003,0.30000,60.00000,7.559849e-006
 935.07,370.189, 5.529531e-003,0.30002,60.00000,7.568806e-006
 937.07,369.792, 5.551084e-003,0.30002,60.00000,7.577673e-006
 939.07,369.392, 5.572195e-003,0.30000,60.00000,7.585837e-006
 941.07,368.985, 5.593258e-003,0.29997,60.00000,7.593872e-006
 943.07,368.573, 5.615011e-003,0.30000,60.00000,7.602865e-006
 945.07,368.165, 5.637411e-003,0.30002,60.00000,7.612681e-006
 947.07,367.758, 5.659885e-003,0.30000,60.00000,7.622454e-006
 949.07,367.354, 5.682761e-003,0.30000,60.00000,7.632765e-006
 951.07,366.952, 5.704962e-003,0.29998,60.00000,7.642125e-006
 953.07,366.55, 5.726535e-003,0.30000,60.00000,7.650646e-006
 955.07,366.152, 5.747876e-003,0.30000,60.00000,7.658723e-006
 957.07,365.753, 5.769965e-003,0.29995,60.00000,7.667828e-006
 959.07,365.354, 5.792637e-003,0.30001,60.00000,7.677566e-006
 961.07,364.957, 5.814486e-003,0.29998,60.00000,7.686199e-006
 963.07,364.562, 5.835827e-003,0.29999,60.00000,7.694165e-006
 965.07,364.167, 5.858128e-003,0.29996,60.00000,7.703287e-006
 967.07,363.77, 5.880411e-003,0.30000,60.00000,7.712388e-006
 969.07,363.371, 5.903311e-003,0.29998,60.00000,7.722227e-006
 971.07,362.972, 5.926181e-003,0.30000,60.00000,7.731960e-006
 973.07,362.575, 5.948772e-003,0.30000,60.00000,7.741337e-006
 975.07,362.179, 5.971472e-003,0.29999,60.00000,7.750807e-006
 977.07,361.782, 5.993999e-003,0.29999,60.00000,7.759939e-006
 979.07,361.384, 6.016295e-003,0.29999,60.00000,7.768694e-006
 981.07,360.982, 6.038276e-003,0.30000,60.00000,7.777071e-006
 983.07,360.574, 6.060310e-003,0.29997,60.00000,7.785449e-006
 985.07,360.164, 6.082660e-003,0.30001,60.00000,7.794200e-006
 987.07,359.755, 6.105830e-003,0.29999,60.00000,7.804003e-006
 989.07,359.35, 6.129346e-003,0.29998,60.00000,7.814125e-006
 991.07,358.946, 6.153556e-003,0.29997,60.00000,7.825114e-006
 993.07,358.54, 6.177353e-003,0.30001,60.00000,7.835508e-006
 995.07,358.133, 6.200987e-003,0.30000,60.00000,7.845666e-006
 997.07,357.727, 6.224869e-003,0.30000,60.00000,7.856049e-006
 999.07,357.324, 6.248595e-003,0.29997,60.00000,7.866233e-006
1001.07,356.922, 6.272928e-003,0.30000,60.00000,7.877076e-006
1003.07,356.517, 6.296402e-003,0.30001,60.00000,7.886807e-006
1005.07,356.106, 6.319561e-003,0.29992,60.00000,7.896109e-006
1007.07,355.695, 6.345008e-003,0.30001,60.00000,7.908261e-006
1009.07,355.29, 6.370236e-003,0.30000,60.00000,7.920041e-006
1011.07,354.886, 6.395704e-003,0.30000,60.00000,7.932044e-006
1013.07,354.49, 6.420764e-003,0.30000,60.00000,7.943494e-006
1015.07,354.093, 6.445286e-003,0.30000,60.00000,7.954187e-006
1017.07,353.695, 6.469410e-003,0.30001,60.00000,7.964391e-006
1019.07,353.296, 6.492849e-003,0.29999,60.00000,7.973688e-006
1021.07,352.894, 6.515336e-003,0.29999,60.00000,7.981713e-006
1023.07,352.495, 6.538987e-003,0.29999,60.00000,7.991180e-006
1025.07,352.096, 6.562184e-003,0.29994,60.00000,8.000073e-006
1027.07,351.699, 6.586772e-003,0.30000,60.00000,8.010530e-006
1029.07,351.303, 6.611504e-003,0.29999,60.00000,8.021220e-006
1031.07,350.909, 6.635734e-003,0.29998,60.00000,8.031203e-006
1033.07,350.515, 6.659982e-003,0.29998,60.00000,8.041010e-006
1035.07,350.119, 6.683565e-003,0.29999,60.00000,8.050193e-006
1037.07,349.719, 6.707103e-003,0.29997,60.00000,8.059152e-006
1039.07,349.314, 6.731006e-003,0.29999,60.00000,8.068568e-006
1041.07,348.906, 6.754122e-003,0.29997,60.00000,8.076975e-006
1043.07,348.495, 6.778095e-003,0.30002,60.00000,8.086366e-006
1045.07,348.083, 6.801837e-003,0.29999,60.00000,8.095414e-006
1047.07,347.674, 6.826728e-003,0.29997,60.00000,8.105832e-006
1049.07,347.27, 6.852409e-003,0.30000,60.00000,8.117089e-006
1051.07,346.867, 6.878368e-003,0.29999,60.00000,8.128669e-006
1053.07,346.462, 6.904295e-003,0.29999,60.00000,8.140093e-006
1055.07,346.055, 6.929249e-003,0.29997,60.00000,8.150407e-006
1057.07,345.648, 6.953576e-003,0.30000,60.00000,8.159840e-006
1059.07,345.24, 6.977926e-003,0.30001,60.00000,8.169336e-006
1061.07,344.835, 7.002573e-003,0.29995,60.00000,8.179074e-006
1063.07,344.431, 7.026653e-003,0.29998,60.00000,8.188125e-006
1065.07,344.028, 7.051749e-003,0.29993,60.00000,8.198332e-006
1067.07,343.626, 7.077791e-003,0.30002,60.00000,8.209594e-006
1069.07,343.226, 7.103162e-003,0.29997,60.00000,8.219997e-006
1071.07,342.828, 7.128506e-003,0.29999,60.00000,8.230335e-006
1073.07,342.431, 7.153574e-003,0.29998,60.00000,8.240298e-006
1075.07,342.033, 7.178454e-003,0.29993,60.00000,8.250055e-006
1077.07,341.636, 7.203850e-003,0.30000,60.00000,8.260295e-006
1079.07,341.24, 7.228781e-003,0.30001,60.00000,8.269992e-006
1081.07,340.845, 7.253526e-003,0.29997,60.00000,8.279374e-006
1083.07,340.447, 7.278200e-003,0.30000,60.00000,8.288746e-006
1085.07,340.05, 7.304009e-003,0.29999,60.00000,8.299259e-006
1087.07,339.651, 7.329716e-003,0.30001,60.00000,8.309615e-006
1089.07,339.248, 7.355119e-003,0.30000,60.00000,8.319600e-006
1091.07,338.843, 7.380904e-003,0.30001,60.00000,8.330008e-006
1093.07,338.441, 7.406288e-003,0.30000,60.00000,8.339844e-006
1095.07,338.04, 7.430889e-003,0.29997,60.00000,8.348822e-006
1097.07,337.639, 7.455665e-003,0.29998,60.00000,8.357926e-006
1099.07,337.236, 7.479972e-003,0.29999,60.00000,8.366453e-006
1101.07,336.83, 7.504287e-003,0.29999,60.00000,8.374970e-006
1103.07,336.423, 7.529341e-003,0.30001,60.00000,8.384291e-006
1105.07,336.018, 7.555721e-003,0.29999,60.00000,8.395051e-006
1107.07,335.619, 7.581903e-003,0.30000,60.00000,8.405421e-006
1109.07,335.216, 7.606959e-003,0.29999,60.00000,8.414614e-006
1111.07,334.808, 7.632614e-003,0.29999,60.00000,8.424460e-006
1113.07,334.404, 7.658207e-003,0.30000,60.00000,8.434137e-006
1115.07,334.003, 7.684330e-003,0.30000,60.00000,8.444367e-006
1117.07,333.603, 7.709954e-003,0.30000,60.00000,8.453976e-006
1119.07,333.199, 7.735928e-003,0.30000,60.00000,8.463917e-006
1121.07,332.793, 7.761736e-003,0.29993,60.00000,8.473750e-006
1123.07,332.395, 7.788866e-003,0.29997,60.00000,8.484862e-006
1125.07,331.998, 7.815057e-003,0.30001,60.00000,8.494887e-006
1127.07,331.601, 7.841000e-003,0.30000,60.00000,8.504676e-006
1129.07,331.198, 7.866551e-003,0.30002,60.00000,8.513975e-006
1131.07,330.791, 7.892314e-003,0.29997,60.00000,8.523493e-006
1133.07,330.387, 7.918261e-003,0.30000,60.00000,8.533112e-006
1135.07,329.981, 7.943423e-003,0.29998,60.00000,8.541869e-006
1137.07,329.573, 7.968172e-003,0.30000,60.00000,8.550152e-006
1139.07,329.165, 7.993190e-003,0.30016,60.00000,8.558675e-006
1141.07,328.764, 8.019656e-003,0.30001,60.00000,8.568722e-006
1143.07,328.375, 8.046297e-003,0.29997,60.00000,8.578939e-006
1145.07,327.994, 8.072733e-003,0.29997,60.00000,8.588782e-006
1147.07,327.607, 8.098222e-003,0.29997,60.00000,8.597647e-006
1149.07,327.21, 8.124062e-003,0.30000,60.00000,8.606891e-006
1151.07,326.812, 8.150445e-003,0.30001,60.00000,8.616610e-006
1153.07,326.409, 8.175374e-003,0.30002,60.00000,8.624791e-006
1155.07,325.998, 8.199303e-003,0.30001,60.00000,8.631837e-006
1157.07,325.58, 8.223023e-003,0.29998,60.00000,8.638678e-006
1159.07,325.166, 8.249492e-003,0.29998,60.00000,8.648371e-006
1161.07,324.762, 8.275624e-003,0.30000,60.00000,8.657652e-006
1163.07,324.354, 8.302168e-003,0.29994,60.00000,8.667293e-006
1165.07,323.929, 8.328403e-003,0.29999,60.00000,8.676654e-006
1167.07,323.507, 8.353822e-003,0.30001,60.00000,8.685080e-006
1169.07,323.093, 8.378638e-003,0.29997,60.00000,8.692826e-006
1171.07,322.677, 8.404649e-003,0.30000,60.00000,8.701845e-006
1173.07,322.271, 8.431507e-003,0.29999,60.00000,8.711597e-006
1175.07,321.859, 8.456653e-003,0.29999,60.00000,8.719633e-006
1177.07,321.447, 8.482804e-003,0.30000,60.00000,8.728663e-006
1179.07,321.046, 8.509705e-003,0.30001,60.00000,8.738411e-006
1181.07,320.655, 8.536827e-003,0.29998,60.00000,8.748293e-006
1183.07,320.261, 8.562943e-003,0.30000,60.00000,8.757102e-006
1185.07,319.842, 8.586741e-003,0.30001,60.00000,8.763544e-006
1187.07,319.392, 8.611337e-003,0.29998,60.00000,8.770911e-006
1189.07,318.957, 8.638944e-003,0.30001,60.00000,8.781232e-006
1191.07,318.569, 8.668239e-003,0.29998,60.00000,8.793229e-006
1193.07,318.225, 8.698154e-003,0.30000,60.00000,8.805757e-006
1195.07,317.912, 8.728415e-003,0.29998,60.00000,8.818544e-006
1197.07,317.607, 8.756498e-003,0.30001,60.00000,8.828928e-006
1199.07,317.269, 8.781969e-003,0.30002,60.00000,8.836759e-006
1201.07,316.847, 8.804978e-003,0.29998,60.00000,8.842139e-006
1203.07,316.276, 8.824014e-003,0.29998,60.00000,8.843751e-006
1205.07,315.74, 8.850819e-003,0.30000,60.00000,8.853035e-006
1207.07,315.32, 8.879632e-003,0.29997,60.00000,8.864161e-006
1209.07,314.966, 8.910570e-003,0.29999,60.00000,8.877407e-006
1211.07,314.661, 8.940026e-003,0.29981,60.00000,8.888989e-006
1213.07,314.374, 8.968779e-003,0.29998,60.00000,8.899772e-006
1215.07,314.068, 8.994438e-003,0.30001,60.00000,8.907474e-006
1217.07,313.702, 9.018692e-003,0.29998,60.00000,8.913877e-006
1219.07,313.209, 9.039702e-003,0.30001,60.00000,8.917073e-006
1221.07,312.523, 9.061214e-003,0.30001,60.00000,8.921099e-006
1223.07,312.01, 9.088937e-003,0.29999,60.00000,8.930723e-006
1225.07,311.596, 9.119384e-003,0.29998,60.00000,8.943261e-006
1227.07,311.264, 9.151857e-003,0.29997,60.00000,8.957558e-006
1229.07,310.981, 9.183825e-003,0.29983,60.00000,8.971250e-006
1231.07,310.713, 9.214222e-003,0.30000,60.00000,8.983184e-006
1233.07,310.425, 9.242551e-003,0.29999,60.00000,8.993273e-006
1235.07,310.088, 9.268294e-003,0.29998,60.00000,9.000855e-006
1237.07,309.658, 9.290250e-003,0.29999,60.00000,9.004686e-006
1239.07,308.92, 9.305117e-003,0.30002,60.00000,9.001952e-006
1241.07,308.328, 9.336227e-003,0.30001,60.00000,9.014810e-006
1243.07,307.957, 9.367357e-003,0.30000,60.00000,9.027402e-006
1245.07,307.647, 9.399154e-003,0.30001,60.00000,9.040700e-006
1247.07,307.369, 9.429740e-003,0.30008,60.00000,9.052592e-006
1249.07,307.095, 9.458159e-003,0.30000,60.00000,9.062315e-006
1251.07,306.796, 9.485405e-003,0.29998,60.00000,9.071115e-006
1253.07,306.465, 9.512489e-003,0.30002,60.00000,9.079679e-006
1255.07,306.094, 9.537622e-003,0.29996,60.00000,9.086330e-006
1257.07,305.605, 9.555771e-003,0.29999,60.00000,9.086212e-006
1259.07,304.725, 9.572517e-003,0.30002,60.00000,9.085486e-006
1261.07,304.261, 9.604563e-003,0.30002,60.00000,9.098588e-006
1263.07,303.937, 9.636994e-003,0.30004,60.00000,9.112039e-006
1265.07,303.656, 9.668574e-003,0.29997,60.00000,9.124539e-006
1267.07,303.388, 9.698812e-003,0.30000,60.00000,9.135732e-006
1269.07,303.103, 9.726324e-003,0.30002,60.00000,9.144335e-006
1271.07,302.78, 9.753047e-003,0.29999,60.00000,9.152420e-006
1273.07,302.414, 9.779530e-003,0.29997,60.00000,9.160062e-006
1275.07,301.983, 9.804524e-003,0.29998,60.00000,9.166329e-006
1277.07,301.355, 9.824948e-003,0.29998,60.00000,9.168301e-006
1279.07,300.661, 9.855424e-003,0.30001,60.00000,9.180040e-006
1281.07,300.255, 9.888056e-003,0.29991,60.00000,9.193262e-006
1283.07,299.92, 9.920477e-003,0.30002,60.00000,9.206323e-006
1285.07,299.615, 9.952300e-003,0.29999,60.00000,9.218698e-006
1287.07,299.315, 9.982277e-003,0.30004,60.00000,9.229278e-006
1289.07,299, 1.001110e-002,0.29998,60.00000,9.238840e-006
1291.07,298.65, 1.003904e-002,0.29998,60.00000,9.247612e-006
1293.07,298.247, 1.006508e-002,0.29999,60.00000,9.254598e-006
1295.07,297.772, 1.008951e-002,0.30000,60.00000,9.260111e-006
1297.07,297.224, 1.011724e-002,0.30000,60.00000,9.268724e-006
1299.07,296.757, 1.014787e-002,0.29997,60.00000,9.279810e-006
1301.07,296.352, 1.017868e-002,0.30000,60.00000,9.290984e-006
1303.07,295.964, 1.020933e-002,0.29999,60.00000,9.302010e-006
1305.07,295.58, 1.023849e-002,0.29997,60.00000,9.311640e-006
1307.07,295.19, 1.026771e-002,0.30001,60.00000,9.321291e-006
1309.07,294.794, 1.029812e-002,0.30000,60.00000,9.332027e-006
1311.07,294.398, 1.032777e-002,0.29999,60.00000,9.341969e-006
1313.07,294.003, 1.035717e-002,0.29998,60.00000,9.351695e-006
1315.07,293.609, 1.038746e-002,0.29999,60.00000,9.362186e-006
1317.07,293.211, 1.041794e-002,0.30002,60.00000,9.372823e-006
1319.07,292.807, 1.044835e-002,0.29998,60.00000,9.383289e-006
1321.07,292.401, 1.047818e-002,0.29999,60.00000,9.393283e-006
1323.07,291.994, 1.050773e-002,0.30004,60.00000,9.402943e-006
1325.07,291.578, 1.053723e-002,0.29998,60.00000,9.412524e-006
1327.07,291.159, 1.056693e-002,0.30001,60.00000,9.422273e-006
1329.07,290.743, 1.059661e-002,0.30002,60.00000,9.431957e-006
1331.07,290.331, 1.062859e-002,0.29999,60.00000,9.443631e-006
1333.07,289.918, 1.066048e-002,0.29999,60.00000,9.455195e-006
1335.07,289.503, 1.069272e-002,0.30000,60.00000,9.467126e-006
1337.07,289.098, 1.072593e-002,0.29998,60.00000,9.479720e-006
1339.07,288.7, 1.075905e-002,0.30003,60.00000,9.492301e-006
1341.07,288.304, 1.079147e-002,0.29999,60.00000,9.504178e-006
1343.07,287.91, 1.082375e-002,0.29972,60.00000,9.515863e-006
1345.07,287.518, 1.085712e-002,0.29999,60.00000,9.528489e-006
1347.07,287.126, 1.089088e-002,0.29997,60.00000,9.541436e-006
1349.07,286.732, 1.092445e-002,0.29999,60.00000,9.554145e-006
1351.07,286.329, 1.095676e-002,0.30000,60.00000,9.565651e-006
1353.07,285.896, 1.098778e-002,0.29998,60.00000,9.576067e-006
1355.07,285.433, 1.101951e-002,0.29999,60.00000,9.587161e-006
1357.07,285.009, 1.105361e-002,0.29985,60.00000,9.600117e-006
1359.07,284.611, 1.108682e-002,0.29998,60.00000,9.612265e-006
1361.07,284.206, 1.111994e-002,0.29998,60.00000,9.624417e-006
1363.07,283.806, 1.115451e-002,0.29997,60.00000,9.637659e-006
1365.07,283.416, 1.118841e-002,0.29999,60.00000,9.650343e-006
1367.07,283.032, 1.122274e-002,0.30000,60.00000,9.663319e-006
1369.07,282.652, 1.125697e-002,0.29999,60.00000,9.676170e-006
1371.07,282.275, 1.129202e-002,0.29997,60.00000,9.689700e-006
1373.07,281.9, 1.132856e-002,0.29996,60.00000,9.704420e-006
1375.07,281.527, 1.136509e-002,0.29999,60.00000,9.719195e-006
1377.07,281.165, 1.140191e-002,0.30000,60.00000,9.734079e-006
1379.07,280.809, 1.143928e-002,0.29998,60.00000,9.749378e-006
1381.07,280.457, 1.147635e-002,0.29999,60.00000,9.764364e-006
1383.07,280.109, 1.151366e-002,0.30001,60.00000,9.779533e-006
1385.07,279.765, 1.155212e-002,0.29999,60.00000,9.795614e-006
1387.07,279.424, 1.159124e-002,0.29997,60.00000,9.812168e-006
1389.07,279.081, 1.162976e-002,0.30002,60.00000,9.828261e-006
1391.07,278.74, 1.166848e-002,0.29996,60.00000,9.844319e-006
1393.07,278.394, 1.170763e-002,0.30001,60.00000,9.860804e-006
1395.07,278.041, 1.174653e-002,0.30000,60.00000,9.876977e-006
1397.07,277.687, 1.178737e-002,0.29999,60.00000,9.894782e-006
1399.07,277.321, 1.182894e-002,0.29999,60.00000,9.912969e-006