File: 李院长 MgO-C C9-基 1400-200 @ S2-2.csv
#EXPORTTYPE:       ,DATA ALL
#FILE:             ,李院长 MgO-C C9-骨 C9-基 1400.ngb-dl9
#FORMAT:           ,NETZSCH5
#FTYPE:            ,ANSI
#IDENTITY:         ,C9-基
#DECIMAL:          ,POINT
#SEPARATOR:        ,COMMA
#MTYPE:            ,DIL
#INSTRUMENT:       ,NETZSCH DIL 402SU
#PROJECT:          ,123
#DATE/TIME:        ,2025/6/4 16:10:34 (UTC+8)
#CORR. FILE:       ,石墨炉 1400度-1.ngb-cl9
#TEMPCAL:          ,TCALZERO.TMX
#LABORATORY:       ,wust
#OPERATOR:         ,
#REMARK:           ,
#SAMPLE:           ,镁碳
#SAMPLE LENGTH /mm:,25.08
#MATERIAL:         ,镁碳
#MEASMODE:         ,Standard Expansion
#M.RANGE /μm:      ,50000
#CORR. CODE:       ,080
#RANGE:            ,1403°C/5.0(K/min)/200°C
#SEGMENT:          ,S2/2
#SEG. 2:           ,1403°C/5.0(K/min)/200°C
#Tref:             ,210.0°C

##Temp./°C,Time/min,dL/Lo,Force/N,Gas Flow(protective)/(ml/min),m. CTE(2)/(1/K)
 200.937,516.183,-9.538153e-004,0.30000,60.00000,4.507592e-006
 202.937,515.795,-9.444493e-004,0.29997,60.00000,4.458554e-006
 204.937,515.402,-9.361003e-004,0.30002,60.00000,4.539026e-006
 206.937,515.004,-9.271527e-004,0.29988,60.00000,4.591496e-006
 208.937,514.608,-9.183619e-004,0.29998,60.00000,4.653334e-006
 210.937,514.219,-9.079435e-004,0.29990,60.00000,4.714146e-006
 212.937,513.834,-8.978437e-004,0.30006,60.00000,4.774271e-006
 214.937,513.448,-8.892783e-004,0.29995,60.00000,4.834694e-006
 216.937,513.057,-8.797851e-004,0.30003,60.00000,4.784486e-006
 218.937,512.66,-8.701327e-004,0.29999,60.00000,4.793951e-006
 220.937,512.261,-8.598965e-004,0.30004,60.00000,4.852576e-006
 222.937,511.867,-8.502274e-004,0.29997,60.00000,4.850524e-006
 224.937,511.478,-8.403387e-004,0.30006,60.00000,4.862781e-006
 226.937,511.09,-8.306281e-004,0.30005,60.00000,4.860731e-006
 228.937,510.697,-8.216037e-004,0.29998,60.00000,4.823279e-006
 230.937,510.299,-8.111834e-004,0.29999,60.00000,4.861131e-006
 232.937,509.9,-7.994239e-004,0.30001,60.00000,4.949377e-006
 234.937,509.507,-7.882554e-004,0.29996,60.00000,5.000300e-006
 236.937,509.119,-7.776456e-004,0.30004,60.00000,5.023722e-006
 238.937,508.728,-7.673310e-004,0.29998,60.00000,5.032908e-006
 240.937,508.332,-7.565784e-004,0.30003,60.00000,5.054611e-006
 242.937,507.933,-7.453681e-004,0.30001,60.00000,5.088809e-006
 244.937,507.536,-7.347374e-004,0.29993,60.00000,5.101731e-006
 246.937,507.145,-7.249614e-004,0.30001,60.00000,5.090396e-006
 248.937,506.756,-7.158081e-004,0.29999,60.00000,5.063482e-006
 250.937,506.365,-7.056795e-004,0.29993,60.00000,5.063553e-006
 252.937,505.97,-6.950059e-004,0.30000,60.00000,5.076428e-006
 254.937,505.571,-6.829073e-004,0.29998,60.00000,5.119912e-006
 256.937,505.176,-6.724741e-004,0.30001,60.00000,5.123642e-006
 258.937,504.785,-6.637777e-004,0.29994,60.00000,5.091648e-006
 260.937,504.394,-6.534570e-004,0.29998,60.00000,5.094057e-006
 262.937,503.998,-6.416438e-004,0.29996,60.00000,5.125331e-006
 264.937,503.598,-6.302948e-004,0.29996,60.00000,5.145364e-006
 266.937,503.202,-6.188987e-004,0.29999,60.00000,5.165083e-006
 268.937,502.81,-6.078896e-004,0.29999,60.00000,5.176510e-006
 270.937,502.417,-5.978545e-004,0.30004,60.00000,5.171182e-006
 272.937,502.02,-5.872783e-004,0.30001,60.00000,5.174610e-006
 274.937,501.621,-5.764551e-004,0.30007,60.00000,5.182284e-006
 276.937,501.226,-5.656876e-004,0.30002,60.00000,5.188250e-006
 278.937,500.834,-5.562950e-004,0.30002,60.00000,5.174131e-006
 280.937,500.441,-5.449583e-004,0.29999,60.00000,5.187881e-006
 282.937,500.046,-5.327712e-004,0.29998,60.00000,5.212805e-006
 284.937,499.652,-5.208270e-004,0.30005,60.00000,5.232580e-006
 286.937,499.26,-5.095789e-004,0.30002,60.00000,5.242997e-006
 288.937,498.869,-4.978864e-004,0.29996,60.00000,5.258482e-006
 290.937,498.48,-4.873508e-004,0.30004,60.00000,5.258634e-006
 292.937,498.09,-4.750789e-004,0.30001,60.00000,5.279351e-006
 294.937,497.698,-4.630636e-004,0.30000,60.00000,5.297026e-006
 296.937,497.306,-4.518106e-004,0.29996,60.00000,5.304405e-006
 298.937,496.914,-4.406431e-004,0.30004,60.00000,5.310520e-006
 300.937,496.523,-4.287979e-004,0.30000,60.00000,5.324571e-006
 302.937,496.133,-4.173089e-004,0.29999,60.00000,5.333053e-006
 304.937,495.745,-4.059545e-004,0.30003,60.00000,5.340448e-006
 306.937,495.357,-3.939461e-004,0.29997,60.00000,5.354088e-006
 308.937,494.968,-3.821533e-004,0.30000,60.00000,5.365030e-006
 310.937,494.577,-3.711413e-004,0.30000,60.00000,5.367768e-006
 312.937,494.184,-3.597467e-004,0.30002,60.00000,5.374186e-006
 314.937,493.791,-3.481773e-004,0.29999,60.00000,5.382238e-006
 316.937,493.398,-3.363743e-004,0.30001,60.00000,5.392089e-006
 318.937,493.008,-3.246320e-004,0.30002,60.00000,5.400865e-006
 320.937,492.62,-3.145512e-004,0.30000,60.00000,5.394052e-006
 322.937,492.231,-3.047805e-004,0.30000,60.00000,5.385143e-006
 324.937,491.84,-2.935506e-004,0.30004,60.00000,5.389070e-006
 326.937,491.446,-2.827285e-004,0.30001,60.00000,5.389485e-006
 328.937,491.05,-2.711249e-004,0.30007,60.00000,5.396445e-006
 330.937,490.653,-2.586939e-004,0.30003,60.00000,5.410061e-006
 332.937,490.26,-2.457054e-004,0.30007,60.00000,5.427763e-006
 334.937,489.872,-2.324098e-004,0.29999,60.00000,5.446971e-006
 336.937,489.485,-2.197416e-004,0.30001,60.00000,5.461133e-006
 338.937,489.096,-2.075586e-004,0.30003,60.00000,5.470876e-006
 340.937,488.701,-1.949019e-004,0.30003,60.00000,5.483914e-006
 342.937,488.303,-1.827658e-004,0.30001,60.00000,5.492951e-006
 344.937,487.903,-1.705790e-004,0.30001,60.00000,5.501651e-006
 346.937,487.507,-1.577162e-004,0.30003,60.00000,5.515293e-006
 348.937,487.115,-1.458912e-004,0.29998,60.00000,5.520957e-006
 350.937,486.725,-1.346790e-004,0.29993,60.00000,5.522175e-006
 352.937,486.334,-1.219713e-004,0.30002,60.00000,5.533838e-006
 354.937,485.938,-1.099196e-004,0.29994,60.00000,5.540577e-006
 356.937,485.538,-9.770546e-005,0.30005,60.00000,5.548441e-006
 358.937,485.138,-8.554810e-005,0.30001,60.00000,5.555519e-006
 360.937,484.741,-7.253038e-005,0.29999,60.00000,5.568015e-006
 362.937,484.349,-6.073603e-005,0.29999,60.00000,5.572418e-006
 364.937,483.959,-4.821131e-005,0.30001,60.00000,5.581433e-006
 366.937,483.568,-3.403402e-005,0.30004,60.00000,5.600601e-006
 368.937,483.175,-2.213069e-005,0.30003,60.00000,5.605007e-006
 370.937,482.782,-9.099637e-006,0.29997,60.00000,5.616446e-006
 372.937,482.392, 3.688088e-006,0.30002,60.00000,5.625881e-006
 374.937,482.004, 1.607426e-005,0.30003,60.00000,5.632623e-006
 376.937,481.618, 2.869458e-005,0.29998,60.00000,5.640878e-006
 378.937,481.231, 4.183959e-005,0.29998,60.00000,5.651758e-006
 380.937,480.842, 5.463357e-005,0.29995,60.00000,5.660412e-006
 382.937,480.45, 6.756352e-005,0.30001,60.00000,5.669910e-006
 384.937,480.057, 8.082204e-005,0.30008,60.00000,5.680948e-006
 386.937,479.667, 9.467643e-005,0.29997,60.00000,5.694906e-006
 388.937,479.28, 1.079229e-004,0.29996,60.00000,5.705443e-006
 390.937,478.895, 1.217842e-004,0.30000,60.00000,5.718870e-006
 392.937,478.508, 1.345601e-004,0.29998,60.00000,5.726093e-006
 394.937,478.117, 1.469006e-004,0.30003,60.00000,5.731002e-006
 396.937,477.722, 1.597820e-004,0.29999,60.00000,5.738614e-006
 398.937,477.328, 1.726168e-004,0.30002,60.00000,5.745718e-006
 400.937,476.936, 1.859466e-004,0.30000,60.00000,5.755453e-006
 402.937,476.548, 1.988200e-004,0.30002,60.00000,5.762416e-006
 404.937,476.158, 2.119337e-004,0.30001,60.00000,5.770515e-006
 406.937,475.766, 2.247502e-004,0.29998,60.00000,5.776929e-006
 408.937,475.37, 2.377747e-004,0.30001,60.00000,5.784310e-006
 410.937,474.972, 2.515319e-004,0.29998,60.00000,5.795332e-006
 412.937,474.577, 2.650310e-004,0.30006,60.00000,5.804730e-006
 414.937,474.187, 2.783786e-004,0.30001,60.00000,5.813296e-006
 416.937,473.798, 2.912100e-004,0.30000,60.00000,5.818874e-006
 418.937,473.407, 3.034472e-004,0.29998,60.00000,5.821864e-006
 420.937,473.012, 3.158445e-004,0.29999,60.00000,5.825516e-006
 422.937,472.614, 3.286604e-004,0.30001,60.00000,5.830785e-006
 424.937,472.215, 3.386456e-004,0.29995,60.00000,5.823079e-006
 426.937,471.818, 3.520854e-004,0.30002,60.00000,5.831365e-006
 428.937,471.426, 3.655768e-004,0.30001,60.00000,5.839845e-006
 430.937,471.035, 3.792327e-004,0.29997,60.00000,5.848618e-006
 432.937,470.643, 3.922642e-004,0.30000,60.00000,5.854627e-006
 434.937,470.248, 4.053518e-004,0.29999,60.00000,5.860804e-006
 436.937,469.849, 4.197174e-004,0.30002,60.00000,5.872371e-006
 438.937,469.45, 4.345324e-004,0.30000,60.00000,5.885991e-006
 440.937,469.054, 4.464562e-004,0.30002,60.00000,5.886555e-006
 442.937,468.661, 4.608073e-004,0.29998,60.00000,5.897620e-006
 444.937,468.269, 4.755769e-004,0.30004,60.00000,5.910201e-006
 446.937,467.879, 4.894806e-004,0.29997,60.00000,5.919091e-006
 448.937,467.488, 5.024728e-004,0.29997,60.00000,5.923927e-006
 450.937,467.097, 5.160616e-004,0.30002,60.00000,5.930980e-006
 452.937,466.704, 5.293162e-004,0.30002,60.00000,5.936924e-006
 454.937,466.312, 5.426532e-004,0.29998,60.00000,5.942785e-006
 456.937,465.922, 5.549883e-004,0.29999,60.00000,5.944672e-006
 458.937,465.534, 5.685007e-004,0.30001,60.00000,5.951170e-006
 460.937,465.145, 5.813783e-004,0.29999,60.00000,5.955081e-006
 462.937,464.756, 5.937200e-004,0.29999,60.00000,5.956707e-006
 464.937,464.364, 6.069950e-004,0.30000,60.00000,5.962083e-006
 466.937,463.97, 6.200014e-004,0.30001,60.00000,5.966247e-006
 468.937,463.576, 6.339583e-004,0.30003,60.00000,5.974179e-006
 470.937,463.183, 6.485636e-004,0.29990,60.00000,5.984294e-006
 472.937,462.79, 6.637285e-004,0.30002,60.00000,5.996493e-006
 474.937,462.398, 6.789769e-004,0.30002,60.00000,6.008765e-006
 476.937,462.005, 6.940237e-004,0.29999,60.00000,6.020149e-006
 478.937,461.612, 7.086094e-004,0.29999,60.00000,6.029486e-006
 480.937,461.218, 7.234682e-004,0.29997,60.00000,6.039923e-006
 482.937,460.822, 7.381387e-004,0.30001,60.00000,6.049393e-006
 484.937,460.427, 7.527916e-004,0.30003,60.00000,6.058704e-006
 486.937,460.033, 7.668782e-004,0.29998,60.00000,6.065821e-006
 488.937,459.638, 7.798879e-004,0.29998,60.00000,6.068864e-006
 490.937,459.242, 7.934660e-004,0.30003,60.00000,6.074109e-006
 492.937,458.846, 8.074334e-004,0.30001,60.00000,6.080527e-006
 494.937,458.448, 8.217418e-004,0.29996,60.00000,6.087953e-006
 496.937,458.051, 8.357206e-004,0.29998,60.00000,6.094261e-006
 498.937,457.653, 8.505333e-004,0.29999,60.00000,6.103357e-006
 500.937,457.257, 8.641318e-004,0.30000,60.00000,6.108278e-006
 502.937,456.861, 8.781563e-004,0.30004,60.00000,6.114321e-006
 504.937,456.463, 8.925910e-004,0.30000,60.00000,6.121775e-006
 506.937,456.064, 9.065652e-004,0.30001,60.00000,6.127699e-006
 508.937,455.664, 9.208691e-004,0.29997,60.00000,6.134482e-006
 510.937,455.265, 9.354677e-004,0.29997,60.00000,6.142341e-006
 512.937,454.865, 9.509053e-004,0.30002,60.00000,6.152676e-006
 514.937,454.465, 9.660632e-004,0.30001,60.00000,6.162023e-006
 516.937,454.066, 9.816107e-004,0.29998,60.00000,6.172478e-006
 518.937,453.67, 9.962280e-004,0.29999,60.00000,6.180027e-006
 520.937,453.276, 1.011830e-003,0.30002,60.00000,6.190272e-006
 522.937,452.885, 1.027263e-003,0.30001,60.00000,6.199991e-006
 524.937,452.494, 1.041889e-003,0.29999,60.00000,6.207072e-006
 526.937,452.102, 1.056167e-003,0.29999,60.00000,6.212923e-006
 528.937,451.706, 1.068197e-003,0.30004,60.00000,6.211713e-006
 530.937,451.308, 1.082318e-003,0.30000,60.00000,6.217009e-006
 532.937,450.91, 1.097085e-003,0.30000,60.00000,6.224335e-006
 534.937,450.516, 1.112394e-003,0.29998,60.00000,6.233016e-006
 536.937,450.123, 1.127744e-003,0.29999,60.00000,6.241961e-006
 538.937,449.731, 1.142784e-003,0.30000,60.00000,6.249640e-006
 540.937,449.336, 1.157269e-003,0.29999,60.00000,6.255668e-006
 542.937,448.938, 1.172754e-003,0.30001,60.00000,6.264663e-006
 544.937,448.539, 1.189325e-003,0.29998,60.00000,6.276717e-006
 546.937,448.139, 1.206132e-003,0.30004,60.00000,6.289201e-006
 548.937,447.739, 1.222718e-003,0.29999,60.00000,6.301237e-006
 550.937,447.34, 1.239329e-003,0.30002,60.00000,6.312923e-006
 552.937,446.941, 1.255118e-003,0.30000,60.00000,6.322106e-006
 554.937,446.543, 1.270168e-003,0.30000,60.00000,6.329083e-006
 556.937,446.144, 1.285255e-003,0.30005,60.00000,6.336036e-006
 558.937,445.743, 1.300153e-003,0.29999,60.00000,6.342357e-006
 560.937,445.342, 1.313805e-003,0.30000,60.00000,6.345246e-006
 562.937,444.941, 1.329759e-003,0.30001,60.00000,6.354472e-006
 564.937,444.54, 1.343945e-003,0.29995,60.00000,6.358588e-006
 566.937,444.139, 1.358279e-003,0.29997,60.00000,6.363134e-006
 568.937,443.738, 1.373421e-003,0.30002,60.00000,6.369839e-006
 570.937,443.336, 1.388730e-003,0.29999,60.00000,6.376984e-006
 572.937,442.933, 1.404419e-003,0.30001,60.00000,6.385050e-006
 574.937,442.53, 1.420448e-003,0.30002,60.00000,6.394014e-006
 576.937,442.129, 1.436322e-003,0.30001,60.00000,6.402455e-006
 578.937,441.728, 1.452302e-003,0.30003,60.00000,6.411018e-006
 580.937,441.324, 1.469385e-003,0.30001,60.00000,6.422479e-006
 582.937,440.915, 1.485942e-003,0.29998,60.00000,6.432428e-006
 584.937,440.505, 1.502627e-003,0.30001,60.00000,6.442636e-006
 586.937,440.097, 1.520343e-003,0.30000,60.00000,6.455477e-006
 588.937,439.695, 1.536272e-003,0.30001,60.00000,6.463489e-006
 590.937,439.297, 1.552569e-003,0.30002,60.00000,6.472385e-006
 592.937,438.9, 1.568919e-003,0.30002,60.00000,6.481091e-006
 594.937,438.502, 1.583668e-003,0.29997,60.00000,6.485827e-006
 596.937,438.105, 1.598640e-003,0.29999,60.00000,6.491002e-006
 598.937,437.707, 1.613845e-003,0.29998,60.00000,6.496706e-006
 600.937,437.309, 1.629382e-003,0.29999,60.00000,6.503163e-006
 602.937,436.909, 1.644719e-003,0.30001,60.00000,6.509140e-006
 604.937,436.507, 1.659958e-003,0.30000,60.00000,6.514753e-006
 606.937,436.106, 1.675619e-003,0.30001,60.00000,6.521314e-006
 608.937,435.706, 1.690405e-003,0.29999,60.00000,6.525766e-006
 610.937,435.308, 1.706026e-003,0.30001,60.00000,6.532163e-006
 612.937,434.909, 1.721480e-003,0.29998,60.00000,6.538055e-006
 614.937,434.507, 1.738872e-003,0.30001,60.00000,6.548700e-006
 616.937,434.101, 1.755813e-003,0.29999,60.00000,6.558179e-006
 618.937,433.692, 1.773351e-003,0.30000,60.00000,6.569041e-006
 620.937,433.284, 1.789488e-003,0.30001,60.00000,6.576327e-006
 622.937,432.875, 1.807603e-003,0.30000,60.00000,6.588339e-006
 624.937,432.468, 1.825716e-003,0.30000,60.00000,6.600304e-006
 626.937,432.064, 1.843040e-003,0.30001,60.00000,6.610117e-006
 628.937,431.661, 1.858508e-003,0.29999,60.00000,6.615547e-006
 630.937,431.259, 1.875568e-003,0.29999,60.00000,6.624570e-006
 632.937,430.852, 1.892306e-003,0.29997,60.00000,6.632829e-006
 634.937,430.444, 1.909532e-003,0.30000,60.00000,6.642108e-006
 636.937,430.042, 1.924966e-003,0.29998,60.00000,6.647233e-006
 638.937,429.644, 1.941645e-003,0.30000,60.00000,6.655126e-006
 640.937,429.244, 1.958930e-003,0.30001,60.00000,6.664298e-006
 642.937,428.841, 1.975030e-003,0.29999,60.00000,6.670666e-006
 644.937,428.434, 1.991827e-003,0.30001,60.00000,6.678619e-006
 646.937,428.023, 2.008517e-003,0.29994,60.00000,6.686234e-006
 648.937,427.612, 2.027352e-003,0.29997,60.00000,6.698710e-006
 650.937,427.207, 2.046020e-003,0.30002,60.00000,6.710638e-006
 652.937,426.807, 2.064664e-003,0.30003,60.00000,6.722474e-006
 654.937,426.411, 2.081824e-003,0.29999,60.00000,6.730860e-006
 656.937,426.014, 2.099485e-003,0.30000,60.00000,6.740175e-006
 658.937,425.614, 2.117396e-003,0.29998,60.00000,6.750101e-006
 660.937,425.214, 2.134652e-003,0.30001,60.00000,6.758364e-006
 662.937,424.815, 2.152380e-003,0.29998,60.00000,6.767723e-006
 664.937,424.421, 2.170019e-003,0.30000,60.00000,6.776743e-006
 666.937,424.031, 2.185954e-003,0.30000,60.00000,6.781902e-006
 668.937,423.64, 2.203236e-003,0.29998,60.00000,6.790028e-006
 670.937,423.245, 2.220355e-003,0.30000,60.00000,6.797753e-006
 672.937,422.845, 2.238397e-003,0.29999,60.00000,6.807341e-006
 674.937,422.444, 2.256261e-003,0.30001,60.00000,6.816456e-006
 676.937,422.045, 2.273205e-003,0.30001,60.00000,6.823591e-006
 678.937,421.645, 2.291515e-003,0.29998,60.00000,6.833484e-006
 680.937,421.241, 2.310260e-003,0.29998,60.00000,6.844307e-006
 682.937,420.835, 2.329202e-003,0.30000,60.00000,6.855376e-006
 684.937,420.431, 2.348681e-003,0.30001,60.00000,6.867507e-006
 686.937,420.03, 2.366583e-003,0.30000,60.00000,6.876286e-006
 688.937,419.63, 2.384897e-003,0.29998,60.00000,6.885809e-006
 690.937,419.227, 2.403518e-003,0.30001,60.00000,6.895870e-006
 692.937,418.821, 2.422102e-003,0.30001,60.00000,6.905793e-006
 694.937,418.416, 2.439910e-003,0.30000,60.00000,6.914126e-006
 696.937,418.014, 2.458142e-003,0.30001,60.00000,6.923071e-006
 698.937,417.615, 2.475686e-003,0.29998,60.00000,6.930678e-006
 700.937,417.218, 2.494176e-003,0.30000,60.00000,6.939986e-006
 702.937,416.82, 2.512097e-003,0.29997,60.00000,6.948298e-006
 704.937,416.418, 2.529450e-003,0.29999,60.00000,6.955187e-006
 706.937,416.012, 2.546848e-003,0.29999,60.00000,6.962276e-006
 708.937,415.603, 2.565489e-003,0.29999,60.00000,6.971726e-006
 710.937,415.196, 2.584601e-003,0.30002,60.00000,6.982010e-006
 712.937,414.792, 2.604081e-003,0.30002,60.00000,6.993049e-006
 714.937,414.392, 2.623694e-003,0.30001,60.00000,7.004139e-006
 716.937,413.994, 2.642290e-003,0.29997,60.00000,7.013204e-006
 718.937,413.596, 2.658329e-003,0.30003,60.00000,7.017146e-006
 720.937,413.196, 2.677571e-003,0.29997,60.00000,7.027328e-006
 722.937,412.798, 2.696849e-003,0.29999,60.00000,7.037501e-006
 724.937,412.401, 2.716293e-003,0.29999,60.00000,7.047996e-006
 726.937,412.005, 2.734744e-003,0.30000,60.00000,7.056408e-006
 728.937,411.608, 2.753153e-003,0.30001,60.00000,7.064653e-006
 730.937,411.209, 2.770527e-003,0.29999,60.00000,7.070911e-006
 732.937,410.809, 2.789832e-003,0.29998,60.00000,7.080743e-006
 734.937,410.41, 2.808836e-003,0.30001,60.00000,7.090012e-006
 736.937,410.011, 2.827588e-003,0.30000,60.00000,7.098601e-006
 738.937,409.614, 2.846976e-003,0.30001,60.00000,7.108443e-006
 740.937,409.215, 2.864550e-003,0.29998,60.00000,7.114830e-006
 742.937,408.812, 2.883501e-003,0.30000,60.00000,7.123653e-006
 744.937,408.408, 2.902628e-003,0.30002,60.00000,7.132780e-006
 746.937,408.005, 2.921667e-003,0.30003,60.00000,7.141653e-006
 748.937,407.605, 2.940625e-003,0.29997,60.00000,7.150380e-006
 750.937,407.208, 2.959227e-003,0.29998,60.00000,7.158337e-006
 752.937,406.809, 2.978022e-003,0.30000,60.00000,7.166536e-006
 754.937,406.406, 2.997437e-003,0.29999,60.00000,7.175845e-006
 756.937,405.997, 3.017149e-003,0.30001,60.00000,7.185693e-006
 758.937,405.589, 3.037267e-003,0.29999,60.00000,7.196123e-006
 760.937,405.186, 3.056577e-003,0.30001,60.00000,7.205060e-006
 762.937,404.783, 3.075963e-003,0.29998,60.00000,7.214082e-006
 764.937,404.378, 3.095131e-003,0.30000,60.00000,7.222644e-006
 766.937,403.972, 3.115881e-003,0.30000,60.00000,7.233881e-006
 768.937,403.566, 3.135899e-003,0.29998,60.00000,7.243857e-006
 770.937,403.159, 3.156071e-003,0.29999,60.00000,7.254001e-006
 772.937,402.755, 3.175909e-003,0.30001,60.00000,7.263440e-006
 774.937,402.353, 3.194721e-003,0.29997,60.00000,7.271032e-006
 776.937,401.952, 3.214946e-003,0.30002,60.00000,7.281086e-006
 778.937,401.553, 3.234383e-003,0.29997,60.00000,7.289666e-006
 780.937,401.155, 3.253891e-003,0.30001,60.00000,7.298268e-006
 782.937,400.755, 3.273275e-003,0.29999,60.00000,7.306630e-006
 784.937,400.355, 3.293285e-003,0.30001,60.00000,7.316009e-006
 786.937,399.958, 3.313058e-003,0.30000,60.00000,7.324922e-006
 788.937,399.562, 3.332293e-003,0.29999,60.00000,7.332841e-006
 790.937,399.164, 3.351537e-003,0.29999,60.00000,7.340737e-006
 792.937,398.76, 3.371919e-003,0.29999,60.00000,7.350536e-006
 794.937,398.358, 3.392761e-003,0.29999,60.00000,7.360990e-006
 796.937,397.958, 3.412745e-003,0.30002,60.00000,7.369971e-006
 798.937,397.557, 3.432776e-003,0.29998,60.00000,7.378913e-006
 800.937,397.152, 3.451992e-003,0.29997,60.00000,7.386525e-006
 802.937,396.747, 3.471093e-003,0.29999,60.00000,7.393818e-006
 804.937,396.343, 3.487750e-003,0.29999,60.00000,7.396937e-006
 806.937,395.941, 3.507193e-003,0.29995,60.00000,7.404707e-006
 808.937,395.539, 3.525598e-003,0.29999,60.00000,7.410689e-006
 810.937,395.138, 3.545514e-003,0.30001,60.00000,7.419214e-006
 812.937,394.738, 3.564877e-003,0.29999,60.00000,7.426725e-006
 814.937,394.337, 3.583641e-003,0.30001,60.00000,7.433232e-006
 816.937,393.933, 3.603232e-003,0.29999,60.00000,7.440925e-006
 818.937,393.529, 3.623152e-003,0.30001,60.00000,7.449198e-006
 820.937,393.127, 3.643487e-003,0.30000,60.00000,7.458126e-006
 822.937,392.725, 3.664414e-003,0.30003,60.00000,7.467959e-006
 824.937,392.321, 3.685699e-003,0.30001,60.00000,7.478236e-006
 826.937,391.916, 3.706759e-003,0.30002,60.00000,7.488144e-006
 828.937,391.511, 3.726500e-003,0.30001,60.00000,7.495883e-006
 830.937,391.108, 3.747008e-003,0.30000,60.00000,7.504740e-006
 832.937,390.705, 3.767062e-003,0.30001,60.00000,7.512844e-006
 834.937,390.299, 3.786839e-003,0.29999,60.00000,7.520473e-006
 836.937,389.893, 3.806782e-003,0.29998,60.00000,7.528227e-006
 838.937,389.489, 3.827386e-003,0.30000,60.00000,7.537076e-006
 840.937,389.087, 3.847555e-003,0.29998,60.00000,7.545171e-006
 842.937,388.687, 3.867615e-003,0.29998,60.00000,7.553004e-006
 844.937,388.287, 3.887872e-003,0.30003,60.00000,7.561112e-006
 846.937,387.887, 3.908677e-003,0.29999,60.00000,7.570075e-006
 848.937,387.489, 3.929312e-003,0.30000,60.00000,7.578642e-006
 850.937,387.093, 3.949694e-003,0.30001,60.00000,7.586849e-006
 852.937,386.698, 3.969382e-003,0.29998,60.00000,7.593766e-006
 854.937,386.303, 3.988828e-003,0.29998,60.00000,7.600368e-006
 856.937,385.906, 4.008663e-003,0.29999,60.00000,7.607581e-006
 858.937,385.504, 4.025742e-003,0.30002,60.00000,7.610462e-006
 860.937,385.099, 4.046263e-003,0.30002,60.00000,7.618512e-006
 862.937,384.691, 4.066729e-003,0.30001,60.00000,7.626600e-006
 864.937,384.285, 4.086270e-003,0.29998,60.00000,7.633185e-006
 866.937,383.882, 4.106426e-003,0.30000,60.00000,7.640560e-006
 868.937,383.478, 4.126948e-003,0.29997,60.00000,7.648559e-006
 870.937,383.075, 4.147165e-003,0.30002,60.00000,7.655971e-006
 872.937,382.67, 4.168844e-003,0.30000,60.00000,7.665601e-006
 874.937,382.268, 4.190061e-003,0.29999,60.00000,7.674424e-006
 876.937,381.867, 4.211515e-003,0.29999,60.00000,7.683586e-006
 878.937,381.461, 4.232524e-003,0.30003,60.00000,7.692064e-006
 880.937,381.055, 4.253313e-003,0.30001,60.00000,7.700072e-006
 882.937,380.65, 4.272951e-003,0.30001,60.00000,7.706428e-006
 884.937,380.247, 4.294767e-003,0.30000,60.00000,7.715887e-006
 886.937,379.843, 4.316006e-003,0.29999,60.00000,7.724418e-006
 888.937,379.437, 4.337274e-003,0.29999,60.00000,7.733019e-006
 890.937,379.032, 4.358242e-003,0.29999,60.00000,7.741103e-006
 892.937,378.628, 4.379149e-003,0.30000,60.00000,7.749043e-006
 894.937,378.227, 4.400132e-003,0.29998,60.00000,7.757085e-006
 896.937,377.83, 4.422289e-003,0.30000,60.00000,7.766743e-006
 898.937,377.437, 4.445013e-003,0.29999,60.00000,7.777175e-006
 900.937,377.044, 4.467393e-003,0.30001,60.00000,7.787027e-006
 902.937,376.65, 4.490237e-003,0.30000,60.00000,7.797504e-006
 904.937,376.253, 4.511819e-003,0.29997,60.00000,7.806166e-006
 906.937,375.857, 4.533677e-003,0.30001,60.00000,7.815168e-006
 908.937,375.462, 4.555517e-003,0.30000,60.00000,7.823957e-006
 910.937,375.066, 4.576631e-003,0.30000,60.00000,7.831795e-006
 912.937,374.668, 4.598379e-003,0.29999,60.00000,7.840427e-006
 914.937,374.264, 4.619227e-003,0.30000,60.00000,7.847787e-006
 916.937,373.857, 4.640451e-003,0.30000,60.00000,7.855602e-006
 918.937,373.447, 4.661416e-003,0.29997,60.00000,7.862995e-006
 920.937,373.033, 4.682302e-003,0.30000,60.00000,7.870261e-006
 922.937,372.618, 4.704969e-003,0.29998,60.00000,7.879970e-006
 924.937,372.204, 4.727105e-003,0.30003,60.00000,7.888943e-006
 926.937,371.794, 4.750217e-003,0.30000,60.00000,7.899113e-006
 928.937,371.39, 4.772371e-003,0.30002,60.00000,7.908032e-006
 930.937,370.999, 4.793526e-003,0.30000,60.00000,7.915348e-006
 932.937,370.609, 4.816221e-003,0.29999,60.00000,7.924830e-006
 934.937,370.215, 4.839108e-003,0.30000,60.00000,7.934570e-006
 936.937,369.815, 4.862017e-003,0.30002,60.00000,7.944264e-006
 938.937,369.412, 4.884739e-003,0.30000,60.00000,7.953623e-006
 940.937,369.007, 4.907392e-003,0.30000,60.00000,7.962841e-006
 942.937,368.6, 4.930273e-003,0.29998,60.00000,7.972326e-006
 944.937,368.194, 4.954656e-003,0.30002,60.00000,7.983850e-006
 946.937,367.789, 4.978457e-003,0.30002,60.00000,7.994465e-006
 948.937,367.385, 5.002546e-003,0.30000,60.00000,8.005409e-006
 950.937,366.982, 5.026731e-003,0.30002,60.00000,8.016501e-006
 952.937,366.583, 5.050788e-003,0.29998,60.00000,8.027252e-006
 954.937,366.187, 5.074776e-003,0.29995,60.00000,8.037879e-006
 956.937,365.795, 5.097870e-003,0.29997,60.00000,8.047304e-006
 958.937,365.403, 5.120536e-003,0.29999,60.00000,8.056064e-006
 960.937,365.009, 5.142338e-003,0.29998,60.00000,8.063632e-006
 962.937,364.61, 5.164033e-003,0.30003,60.00000,8.071037e-006
 964.937,364.209, 5.186131e-003,0.29999,60.00000,8.078933e-006
 966.937,363.811, 5.210111e-003,0.29999,60.00000,8.089287e-006
 968.937,363.416, 5.234572e-003,0.29999,60.00000,8.100182e-006
 970.937,363.023, 5.257974e-003,0.30000,60.00000,8.109631e-006
 972.937,362.624, 5.280818e-003,0.29998,60.00000,8.118331e-006
 974.937,362.22, 5.303466e-003,0.30001,60.00000,8.126742e-006
 976.937,361.81, 5.326646e-003,0.29998,60.00000,8.135787e-006
 978.937,361.401, 5.349953e-003,0.29995,60.00000,8.144885e-006
 980.937,360.994, 5.372804e-003,0.29999,60.00000,8.153448e-006
 982.937,360.587, 5.396157e-003,0.30001,60.00000,8.162511e-006
 984.937,360.181, 5.419940e-003,0.30000,60.00000,8.172153e-006
 986.937,359.774, 5.443895e-003,0.30000,60.00000,8.181921e-006
 988.937,359.369, 5.469201e-003,0.30000,60.00000,8.193428e-006
 990.937,358.964, 5.494774e-003,0.29997,60.00000,8.205226e-006
 992.937,358.562, 5.519641e-003,0.29998,60.00000,8.215982e-006
 994.937,358.159, 5.544323e-003,0.29997,60.00000,8.226530e-006
 996.937,357.755, 5.569071e-003,0.30005,60.00000,8.237066e-006
 998.937,357.35, 5.593450e-003,0.29999,60.00000,8.247054e-006
1000.94,356.941, 5.617510e-003,0.30001,60.00000,8.256616e-006
1002.94,356.53, 5.641229e-003,0.30000,60.00000,8.265744e-006
1004.94,356.123, 5.664688e-003,0.29998,60.00000,8.274436e-006
1006.94,355.722, 5.688278e-003,0.29998,60.00000,8.283269e-006
1008.94,355.324, 5.713236e-003,0.29998,60.00000,8.293771e-006
1010.94,354.928, 5.738188e-003,0.29997,60.00000,8.304265e-006
1012.94,354.534, 5.762477e-003,0.29997,60.00000,8.313770e-006
1014.94,354.139, 5.786415e-003,0.30004,60.00000,8.322841e-006
1016.94,353.74, 5.810700e-003,0.29999,60.00000,8.332312e-006
1018.94,353.342, 5.834745e-003,0.30001,60.00000,8.341463e-006
1020.94,352.946, 5.859047e-003,0.29998,60.00000,8.350863e-006
1022.94,352.55, 5.883310e-003,0.30000,60.00000,8.360143e-006
1024.94,352.155, 5.907036e-003,0.29999,60.00000,8.368747e-006
1026.94,351.758, 5.930391e-003,0.29999,60.00000,8.376801e-006
1028.94,351.356, 5.953797e-003,0.29999,60.00000,8.384968e-006
1030.94,350.954, 5.978145e-003,0.29998,60.00000,8.394184e-006
1032.94,350.551, 6.002035e-003,0.29999,60.00000,8.402859e-006
1034.94,350.144, 6.026181e-003,0.30001,60.00000,8.411741e-006
1036.94,349.733, 6.050171e-003,0.30004,60.00000,8.420395e-006
1038.94,349.321, 6.074753e-003,0.30000,60.00000,8.429755e-006
1040.94,348.912, 6.099045e-003,0.29996,60.00000,8.438699e-006
1042.94,348.504, 6.123873e-003,0.30001,60.00000,8.448231e-006
1044.94,348.102, 6.147933e-003,0.30000,60.00000,8.456793e-006
1046.94,347.702, 6.171525e-003,0.30000,60.00000,8.464748e-006
1048.94,347.298, 6.195791e-003,0.29996,60.00000,8.473626e-006
1050.94,346.899, 6.221305e-003,0.30000,60.00000,8.483685e-006
1052.94,346.495, 6.246964e-003,0.30002,60.00000,8.494004e-006
1054.94,346.088, 6.272786e-003,0.30000,60.00000,8.504448e-006
1056.94,345.681, 6.297872e-003,0.30001,60.00000,8.514029e-006
1058.94,345.277, 6.323213e-003,0.30003,60.00000,8.523754e-006
1060.94,344.873, 6.348899e-003,0.30001,60.00000,8.533958e-006
1062.94,344.469, 6.373836e-003,0.30000,60.00000,8.543237e-006
1064.94,344.065, 6.399517e-003,0.29995,60.00000,8.553288e-006
1066.94,343.664, 6.424067e-003,0.30000,60.00000,8.561953e-006
1068.94,343.265, 6.448594e-003,0.29998,60.00000,8.570561e-006
1070.94,342.868, 6.473156e-003,0.29996,60.00000,8.579179e-006
1072.94,342.472, 6.498095e-003,0.30000,60.00000,8.588189e-006
1074.94,342.075, 6.523988e-003,0.30000,60.00000,8.598248e-006
1076.94,341.681, 6.548800e-003,0.29999,60.00000,8.607018e-006
1078.94,341.286, 6.574298e-003,0.30000,60.00000,8.616583e-006
1080.94,340.889, 6.599229e-003,0.29999,60.00000,8.625411e-006
1082.94,340.489, 6.624094e-003,0.29999,60.00000,8.634109e-006
1084.94,340.086, 6.649029e-003,0.29997,60.00000,8.642850e-006
1086.94,339.684, 6.673391e-003,0.30000,60.00000,8.650952e-006
1088.94,339.279, 6.697592e-003,0.30000,60.00000,8.658815e-006
1090.94,338.878, 6.722391e-003,0.30000,60.00000,8.667320e-006
1092.94,338.48, 6.747849e-003,0.30002,60.00000,8.676470e-006
1094.94,338.078, 6.772693e-003,0.30000,60.00000,8.685006e-006
1096.94,337.677, 6.797156e-003,0.29997,60.00000,8.692943e-006
1098.94,337.274, 6.820669e-003,0.30004,60.00000,8.699824e-006
1100.94,336.868, 6.845378e-003,0.29996,60.00000,8.708053e-006
1102.94,336.461, 6.869805e-003,0.29998,60.00000,8.715917e-006
1104.94,336.052, 6.894599e-003,0.29998,60.00000,8.724129e-006
1106.94,335.643, 6.920296e-003,0.30004,60.00000,8.733345e-006
1108.94,335.237, 6.944302e-003,0.30000,60.00000,8.740617e-006
1110.94,334.833, 6.969121e-003,0.30003,60.00000,8.748755e-006
1112.94,334.422, 6.994502e-003,0.30000,60.00000,8.757530e-006
1114.94,334.008, 7.020033e-003,0.29995,60.00000,8.766354e-006
1116.94,333.597, 7.046197e-003,0.29999,60.00000,8.775881e-006
1118.94,333.198, 7.072780e-003,0.30001,60.00000,8.785872e-006
1120.94,332.814, 7.099077e-003,0.30001,60.00000,8.795401e-006
1122.94,332.433, 7.125216e-003,0.29999,60.00000,8.804698e-006
1124.94,332.039, 7.150939e-003,0.29999,60.00000,8.813628e-006
1126.94,331.645, 7.176577e-003,0.29998,60.00000,8.822354e-006
1128.94,331.248, 7.202021e-003,0.29998,60.00000,8.830786e-006
1130.94,330.849, 7.227982e-003,0.29996,60.00000,8.839839e-006
1132.94,330.45, 7.254577e-003,0.29996,60.00000,8.849497e-006
1134.94,330.049, 7.279659e-003,0.29998,60.00000,8.857478e-006
1136.94,329.651, 7.305287e-003,0.29999,60.00000,8.865994e-006
1138.94,329.254, 7.330019e-003,0.29996,60.00000,8.873573e-006
1140.94,328.855, 7.354789e-003,0.30000,60.00000,8.881127e-006
1142.94,328.451, 7.379242e-003,0.29998,60.00000,8.888264e-006
1144.94,328.041, 7.404010e-003,0.30000,60.00000,8.895776e-006
1146.94,327.625, 7.429071e-003,0.29997,60.00000,8.903512e-006
1148.94,327.207, 7.454122e-003,0.30000,60.00000,8.911227e-006
1150.94,326.795, 7.480252e-003,0.30001,60.00000,8.920015e-006
1152.94,326.383, 7.506489e-003,0.29998,60.00000,8.928984e-006
1154.94,325.969, 7.531526e-003,0.30000,60.00000,8.936577e-006
1156.94,325.553, 7.556456e-003,0.30000,60.00000,8.943998e-006
1158.94,325.138, 7.581945e-003,0.30002,60.00000,8.952035e-006
1160.94,324.724, 7.608305e-003,0.30001,60.00000,8.960921e-006
1162.94,324.311, 7.635606e-003,0.29999,60.00000,8.970751e-006
1164.94,323.901, 7.662892e-003,0.29999,60.00000,8.980577e-006
1166.94,323.495, 7.688829e-003,0.30001,60.00000,8.988886e-006
1168.94,323.092, 7.713828e-003,0.30002,60.00000,8.996176e-006
1170.94,322.681, 7.739485e-003,0.30002,60.00000,9.004146e-006
1172.94,322.258, 7.766919e-003,0.30001,60.00000,9.013931e-006
1174.94,321.823, 7.793168e-003,0.30006,60.00000,9.022483e-006
1176.94,321.409, 7.820950e-003,0.30003,60.00000,9.032635e-006
1178.94,321.041, 7.849841e-003,0.29998,60.00000,9.043838e-006
1180.94,320.709, 7.879055e-003,0.30003,60.00000,9.055275e-006
1182.94,320.402, 7.908669e-003,0.30000,60.00000,9.067013e-006
1184.94,320.1, 7.935021e-003,0.30001,60.00000,9.075246e-006
1186.94,319.759, 7.957762e-003,0.30002,60.00000,9.079866e-006
1188.94,319.298, 7.977017e-003,0.30000,60.00000,9.081118e-006
1190.94,318.718, 8.003074e-003,0.30001,60.00000,9.089582e-006
1192.94,318.284, 8.033120e-003,0.30003,60.00000,9.101366e-006
1194.94,317.889, 8.059850e-003,0.29999,60.00000,9.110019e-006
1196.94,317.483, 8.085806e-003,0.30001,60.00000,9.117837e-006
1198.94,317.05, 8.111251e-003,0.30002,60.00000,9.125140e-006
1200.94,316.587, 8.136848e-003,0.30000,60.00000,9.132585e-006
1202.94,316.144, 8.163589e-003,0.29998,60.00000,9.141243e-006
1204.94,315.768, 8.193655e-003,0.30004,60.00000,9.153152e-006
1206.94,315.449, 8.224325e-003,0.30000,60.00000,9.165566e-006
1208.94,315.162, 8.254708e-003,0.29996,60.00000,9.177337e-006
1210.94,314.864, 8.279996e-003,0.30002,60.00000,9.184038e-006
1212.94,314.488, 8.301470e-003,0.30001,60.00000,9.187221e-006
1214.94,313.939, 8.320603e-003,0.29994,60.00000,9.188163e-006
1216.94,313.323, 8.346335e-003,0.30003,60.00000,9.195628e-006
1218.94,312.827, 8.373699e-003,0.30001,60.00000,9.204526e-006
1220.94,312.42, 8.404893e-003,0.29998,60.00000,9.217304e-006
1222.94,312.098, 8.437798e-003,0.30001,60.00000,9.231523e-006
1224.94,311.823, 8.469934e-003,0.30000,60.00000,9.244929e-006
1226.94,311.562, 8.499569e-003,0.29997,60.00000,9.255607e-006
1228.94,311.28, 8.526924e-003,0.29999,60.00000,9.264132e-006
1230.94,310.933, 8.551888e-003,0.30000,60.00000,9.270527e-006
1232.94,310.467, 8.574820e-003,0.29999,60.00000,9.274856e-006
1234.94,309.796, 8.595283e-003,0.29997,60.00000,9.277094e-006
1236.94,309.236, 8.624437e-003,0.29999,60.00000,9.287424e-006
1238.94,308.83, 8.657185e-003,0.29999,60.00000,9.301319e-006
1240.94,308.522, 8.691574e-003,0.29999,60.00000,9.316619e-006
1242.94,308.258, 8.722725e-003,0.29998,60.00000,9.328443e-006
1244.94,307.997, 8.751179e-003,0.30005,60.00000,9.337712e-006
1246.94,307.707, 8.778725e-003,0.29997,60.00000,9.346238e-006
1248.94,307.364, 8.804278e-003,0.30003,60.00000,9.352866e-006
1250.94,306.924, 8.824985e-003,0.29999,60.00000,9.354751e-006
1252.94,306.158, 8.839669e-003,0.30001,60.00000,9.351216e-006
1254.94,305.531, 8.868066e-003,0.29997,60.00000,9.360633e-006
1256.94,305.137, 8.900515e-003,0.29998,60.00000,9.373767e-006
1258.94,304.825, 8.932728e-003,0.30000,60.00000,9.386524e-006
1260.94,304.549, 8.964002e-003,0.29998,60.00000,9.398364e-006
1262.94,304.283, 8.993526e-003,0.30000,60.00000,9.408353e-006
1264.94,304, 9.022314e-003,0.29998,60.00000,9.417659e-006
1266.94,303.666, 9.048729e-003,0.29998,60.00000,9.424841e-006
1268.94,303.242, 9.072569e-003,0.29998,60.00000,9.429577e-006
1270.94,302.614, 9.092341e-003,0.29999,60.00000,9.430610e-006
1272.94,301.958, 9.121299e-003,0.29998,60.00000,9.440203e-006
1274.94,301.467, 9.153523e-003,0.30003,60.00000,9.452800e-006
1276.94,301.064, 9.186932e-003,0.29998,60.00000,9.466429e-006
1278.94,300.728, 9.220510e-003,0.30001,60.00000,9.480116e-006
1280.94,300.434, 9.253667e-003,0.29998,60.00000,9.493255e-006
1282.94,300.149, 9.286054e-003,0.29996,60.00000,9.505584e-006
1284.94,299.851, 9.314801e-003,0.30002,60.00000,9.514524e-006
1286.94,299.516, 9.343254e-003,0.29996,60.00000,9.523418e-006
1288.94,299.145, 9.371546e-003,0.29998,60.00000,9.531932e-006
1290.94,298.699, 9.396747e-003,0.30002,60.00000,9.537608e-006
1292.94,298.13, 9.421311e-003,0.30000,60.00000,9.542904e-006
1294.94,297.616, 9.451653e-003,0.29999,60.00000,9.553190e-006
1296.94,297.161, 9.481492e-003,0.29995,60.00000,9.563168e-006
1298.94,296.755, 9.515041e-003,0.29997,60.00000,9.576475e-006
1300.94,296.4, 9.548532e-003,0.29999,60.00000,9.589425e-006
1302.94,296.054, 9.580813e-003,0.30000,60.00000,9.601469e-006
1304.94,295.709, 9.612859e-003,0.29999,60.00000,9.613192e-006
1306.94,295.365, 9.644903e-003,0.29996,60.00000,9.624826e-006
1308.94,295.019, 9.676641e-003,0.29998,60.00000,9.636189e-006
1310.94,294.656, 9.706945e-003,0.29999,60.00000,9.646096e-006
1312.94,294.225, 9.733862e-003,0.30000,60.00000,9.653024e-006
1314.94,293.693, 9.763092e-003,0.29996,60.00000,9.662177e-006
1316.94,293.191, 9.797062e-003,0.30000,60.00000,9.675456e-006
1318.94,292.759, 9.830789e-003,0.29998,60.00000,9.688377e-006
1320.94,292.352, 9.863811e-003,0.30000,60.00000,9.700605e-006
1322.94,291.94, 9.894925e-003,0.29998,60.00000,9.711075e-006
1324.94,291.491, 9.925459e-003,0.30000,60.00000,9.721106e-006
1326.94,291.05, 9.958338e-003,0.30002,60.00000,9.733238e-006
1328.94,290.649, 9.993029e-003,0.29999,60.00000,9.746771e-006
1330.94,290.268, 1.002803e-002,0.29999,60.00000,9.760602e-006
1332.94,289.902, 1.006344e-002,0.30002,60.00000,9.774757e-006
1334.94,289.544, 1.009951e-002,0.29998,60.00000,9.789390e-006
1336.94,289.187, 1.013501e-002,0.29999,60.00000,9.803533e-006
1338.94,288.819, 1.016943e-002,0.29999,60.00000,9.816548e-006
1340.94,288.399, 1.020044e-002,0.29998,60.00000,9.826648e-006
1342.94,287.91, 1.023371e-002,0.29998,60.00000,9.838740e-006
1344.94,287.446, 1.027143e-002,0.29999,60.00000,9.854723e-006
1346.94,287.054, 1.030903e-002,0.30003,60.00000,9.870402e-006
1348.94,286.679, 1.034362e-002,0.30000,60.00000,9.883346e-006
1350.94,286.289, 1.037777e-002,0.30001,60.00000,9.896001e-006
1352.94,285.883, 1.041090e-002,0.30000,60.00000,9.907640e-006
1354.94,285.459, 1.044512e-002,0.29999,60.00000,9.920326e-006
1356.94,285.058, 1.048244e-002,0.29997,60.00000,9.935456e-006
1358.94,284.656, 1.051773e-002,0.29999,60.00000,9.948932e-006
1360.94,284.229, 1.055377e-002,0.30001,60.00000,9.962961e-006
1362.94,283.798, 1.059093e-002,0.29996,60.00000,9.977933e-006
1364.94,283.381, 1.062872e-002,0.29998,60.00000,9.993439e-006
1366.94,283.005, 1.066670e-002,0.29999,60.00000,1.000887e-005
1368.94,282.64, 1.070347e-002,0.30000,60.00000,1.002329e-005
1370.94,282.26, 1.074334e-002,0.30001,60.00000,1.004043e-005
1372.94,281.885, 1.078398e-002,0.30000,60.00000,1.005811e-005
1374.94,281.514, 1.082395e-002,0.30000,60.00000,1.007515e-005
1376.94,281.146, 1.086471e-002,0.29999,60.00000,1.009282e-005
1378.94,280.789, 1.090433e-002,0.29996,60.00000,1.010952e-005
1380.94,280.451, 1.094405e-002,0.29996,60.00000,1.012611e-005
1382.94,280.121, 1.098515e-002,0.30002,60.00000,1.014385e-005
1384.94,279.79, 1.102583e-002,0.30001,60.00000,1.016120e-005
1386.94,279.459, 1.106729e-002,0.29999,60.00000,1.017913e-005
1388.94,279.122, 1.110754e-002,0.29998,60.00000,1.019607e-005
1390.94,278.775, 1.114661e-002,0.30000,60.00000,1.021180e-005
1392.94,278.411, 1.118654e-002,0.29998,60.00000,1.022838e-005
1394.94,278.052, 1.122873e-002,0.30002,60.00000,1.024669e-005
1396.94,277.698, 1.127057e-002,0.29999,60.00000,1.026466e-005
1398.94,277.329, 1.131171e-002,0.29999,60.00000,1.028194e-005
1399.94,277.126, 1.133316e-002,0.30000,60.00000,1.029124e-005