File: 李院长 MgO-C C9-骨 1400-200 @ S1-2.csv
#EXPORTTYPE:       ,DATA ALL
#FILE:             ,李院长 MgO-C C9-骨 C9-基 1400.ngb-dl9
#FORMAT:           ,NETZSCH5
#FTYPE:            ,ANSI
#IDENTITY:         ,C9-骨
#DECIMAL:          ,POINT
#SEPARATOR:        ,COMMA
#MTYPE:            ,DIL
#INSTRUMENT:       ,NETZSCH DIL 402SU
#PROJECT:          ,123
#DATE/TIME:        ,2025/6/4 16:10:34 (UTC+8)
#CORR. FILE:       ,石墨炉 1400度-1.ngb-cl9
#TEMPCAL:          ,TCALZERO.TMX
#LABORATORY:       ,wust
#OPERATOR:         ,
#REMARK:           ,
#SAMPLE:           ,镁碳
#SAMPLE LENGTH /mm:,25.64
#MATERIAL:         ,镁碳
#MEASMODE:         ,Standard Expansion
#M.RANGE /μm:      ,50000
#CORR. CODE:       ,080
#RANGE:            ,1403°C/5.0(K/min)/200°C
#SEGMENT:          ,S2/2
#SEG. 2:           ,1403°C/5.0(K/min)/200°C
#Tref:             ,210.0°C

##Temp./°C,Time/min,dL/Lo,Force/N,Gas Flow(protective)/(ml/min),m. CTE(2)/(1/K)
 200.937,516.183,9.742425e-005,0.30000,60.00000,6.029877e-006
 202.937,515.795,1.105741e-004,0.29999,60.00000,5.876388e-006
 204.937,515.402,1.224849e-004,0.30000,60.00000,5.861204e-006
 206.937,515.004,1.341340e-004,0.30000,60.00000,5.715227e-006
 208.937,514.608,1.455397e-004,0.29997,60.00000,5.570010e-006
 210.937,514.219,1.579815e-004,0.30001,60.00000,5.427203e-006
 212.937,513.834,1.671786e-004,0.30002,60.00000,5.286010e-006
 214.937,513.448,1.772661e-004,0.30000,60.00000,5.144616e-006
 216.937,513.057,1.883074e-004,0.30003,60.00000,5.225296e-006
 218.937,512.66,2.001524e-004,0.29999,60.00000,5.381417e-006
 220.937,512.261,2.125062e-004,0.29998,60.00000,5.526209e-006
 222.937,511.867,2.251693e-004,0.30000,60.00000,5.651561e-006
 224.937,511.478,2.376367e-004,0.29999,60.00000,5.729158e-006
 226.937,511.09,2.494716e-004,0.29999,60.00000,5.750028e-006
 228.937,510.697,2.618752e-004,0.30001,60.00000,5.796973e-006
 230.937,510.299,2.746674e-004,0.29999,60.00000,5.855291e-006
 232.937,509.9,2.885723e-004,0.29998,60.00000,5.950261e-006
 234.937,509.507,3.007241e-004,0.30001,60.00000,5.960344e-006
 236.937,509.119,3.131591e-004,0.30002,60.00000,5.980392e-006
 238.937,508.728,3.255950e-004,0.30000,60.00000,5.996769e-006
 240.937,508.332,3.384774e-004,0.29999,60.00000,6.024911e-006
 242.937,507.933,3.511086e-004,0.30000,60.00000,6.043468e-006
 244.937,507.536,3.636399e-004,0.30001,60.00000,6.056121e-006
 246.937,507.145,3.752566e-004,0.29999,60.00000,6.043000e-006
 248.937,506.756,3.862807e-004,0.29997,60.00000,6.015099e-006
 250.937,506.365,3.982032e-004,0.30000,60.00000,6.012508e-006
 252.937,505.97,4.111830e-004,0.30001,60.00000,6.034917e-006
 254.937,505.571,4.251301e-004,0.30005,60.00000,6.076914e-006
 256.937,505.176,4.385147e-004,0.30001,60.00000,6.102671e-006
 258.937,504.785,4.505279e-004,0.30002,60.00000,6.098381e-006
 260.937,504.394,4.656999e-004,0.30005,60.00000,6.156441e-006
 262.937,503.998,4.786442e-004,0.30002,60.00000,6.169064e-006
 264.937,503.598,4.920392e-004,0.30002,60.00000,6.188351e-006
 266.937,503.202,5.048206e-004,0.29997,60.00000,6.195824e-006
 268.937,502.81,5.173950e-004,0.30001,60.00000,6.198814e-006
 270.937,502.417,5.288631e-004,0.29996,60.00000,6.183421e-006
 272.937,502.02,5.421703e-004,0.29999,60.00000,6.198024e-006
 274.937,501.621,5.554548e-004,0.30000,60.00000,6.212156e-006
 276.937,501.226,5.675779e-004,0.30001,60.00000,6.207589e-006
 278.937,500.834,5.784533e-004,0.29996,60.00000,6.185439e-006
 280.937,500.441,5.910216e-004,0.29999,60.00000,6.188000e-006
 282.937,500.046,6.048755e-004,0.30000,60.00000,6.208368e-006
 284.937,499.652,6.181992e-004,0.30000,60.00000,6.219888e-006
 286.937,499.26,6.309510e-004,0.30000,60.00000,6.224231e-006
 288.937,498.869,6.430173e-004,0.30003,60.00000,6.219628e-006
 290.937,498.48,6.562274e-004,0.30001,60.00000,6.229058e-006
 292.937,498.09,6.699848e-004,0.30001,60.00000,6.244206e-006
 294.937,497.698,6.835099e-004,0.29999,60.00000,6.257032e-006
 296.937,497.306,6.967802e-004,0.30000,60.00000,6.265494e-006
 298.937,496.914,7.099437e-004,0.30001,60.00000,6.272410e-006
 300.937,496.523,7.228432e-004,0.30000,60.00000,6.277003e-006
 302.937,496.133,7.360380e-004,0.30000,60.00000,6.283246e-006
 304.937,495.745,7.493049e-004,0.29999,60.00000,6.290794e-006
 306.937,495.357,7.626076e-004,0.29999,60.00000,6.298169e-006
 308.937,494.968,7.764529e-004,0.29997,60.00000,6.310768e-006
 310.937,494.577,7.894428e-004,0.29999,60.00000,6.314353e-006
 312.937,494.184,8.020894e-004,0.30002,60.00000,6.314545e-006
 314.937,493.791,8.152842e-004,0.30004,60.00000,6.320204e-006
 316.937,493.398,8.283250e-004,0.30000,60.00000,6.324110e-006
 318.937,493.008,8.418384e-004,0.30002,60.00000,6.332030e-006
 320.937,492.62,8.566494e-004,0.30000,60.00000,6.351014e-006
 322.937,492.231,8.671596e-004,0.29998,60.00000,6.331723e-006
 324.937,491.84,8.798219e-004,0.30001,60.00000,6.331629e-006
 326.937,491.446,8.937299e-004,0.30001,60.00000,6.342319e-006
 328.937,491.05,9.240229e-004,0.30001,60.00000,6.490398e-006
 330.937,490.653,9.383115e-004,0.29997,60.00000,6.501298e-006
 332.937,490.26,9.536389e-004,0.29997,60.00000,6.520286e-006
 334.937,489.872,9.682524e-004,0.30000,60.00000,6.532488e-006
 336.937,489.485,9.828513e-004,0.30001,60.00000,6.544793e-006
 338.937,489.096,9.969472e-004,0.29998,60.00000,6.552557e-006
 340.937,488.701,1.011379e-003,0.30000,60.00000,6.562620e-006
 342.937,488.303,1.026172e-003,0.29998,60.00000,6.575462e-006
 344.937,487.903,1.041407e-003,0.29996,60.00000,6.590665e-006
 346.937,487.507,1.055350e-003,0.29999,60.00000,6.596305e-006
 348.937,487.115,1.069873e-003,0.30001,60.00000,6.605814e-006
 350.937,486.725,1.083906e-003,0.29996,60.00000,6.611652e-006
 352.937,486.334,1.101667e-003,0.30000,60.00000,6.643431e-006
 354.937,485.938,1.118332e-003,0.30001,60.00000,6.666676e-006
 356.937,485.538,1.131016e-003,0.29999,60.00000,6.662441e-006
 358.937,485.138,1.147814e-003,0.29998,60.00000,6.685710e-006
 360.937,484.741,1.164056e-003,0.30003,60.00000,6.704565e-006
 362.937,484.349,1.176429e-003,0.30001,60.00000,6.697912e-006
 364.937,483.959,1.191943e-003,0.30000,60.00000,6.711715e-006
 366.937,483.568,1.207232e-003,0.30000,60.00000,6.723551e-006
 368.937,483.175,1.222076e-003,0.29999,60.00000,6.732326e-006
 370.937,482.782,1.237110e-003,0.29998,60.00000,6.742227e-006
 372.937,482.392,1.251916e-003,0.30002,60.00000,6.750210e-006
 374.937,482.004,1.266940e-003,0.30001,60.00000,6.759283e-006
 376.937,481.618,1.283139e-003,0.30000,60.00000,6.775503e-006
 378.937,481.231,1.298071e-003,0.30000,60.00000,6.783500e-006
 380.937,480.842,1.312828e-003,0.30002,60.00000,6.790380e-006
 382.937,480.45,1.326396e-003,0.29999,60.00000,6.790539e-006
 384.937,480.057,1.340694e-003,0.29999,60.00000,6.794722e-006
 386.937,479.667,1.358591e-003,0.29998,60.00000,6.818913e-006
 388.937,479.28,1.374995e-003,0.29997,60.00000,6.834566e-006
 390.937,478.895,1.390190e-003,0.30000,60.00000,6.842859e-006
 392.937,478.508,1.405532e-003,0.30003,60.00000,6.851806e-006
 394.937,478.117,1.420236e-003,0.30001,60.00000,6.857342e-006
 396.937,477.722,1.434666e-003,0.30000,60.00000,6.861188e-006
 398.937,477.328,1.449971e-003,0.30001,60.00000,6.869469e-006
 400.937,476.936,1.465284e-003,0.30002,60.00000,6.877838e-006
 402.937,476.548,1.480219e-003,0.29999,60.00000,6.883836e-006
 404.937,476.158,1.494567e-003,0.29997,60.00000,6.886751e-006
 406.937,475.766,1.509127e-003,0.30002,60.00000,6.890669e-006
 408.937,475.37,1.524700e-003,0.29997,60.00000,6.899659e-006
 410.937,474.972,1.540016e-003,0.29996,60.00000,6.907365e-006
 412.937,474.577,1.554846e-003,0.30000,60.00000,6.912359e-006
 414.937,474.187,1.569687e-003,0.30001,60.00000,6.917422e-006
 416.937,473.798,1.584563e-003,0.30000,60.00000,6.922163e-006
 418.937,473.407,1.598780e-003,0.29999,60.00000,6.924090e-006
 420.937,473.012,1.612090e-003,0.30000,60.00000,6.921632e-006
 422.937,472.614,1.627048e-003,0.29997,60.00000,6.926629e-006
 424.937,472.215,1.637659e-003,0.30008,60.00000,6.911652e-006
 426.937,471.818,1.652308e-003,0.30001,60.00000,6.915483e-006
 428.937,471.426,1.668067e-003,0.29997,60.00000,6.924438e-006
 430.937,471.035,1.683681e-003,0.29999,60.00000,6.932225e-006
 432.937,470.643,1.700132e-003,0.29996,60.00000,6.943854e-006
 434.937,470.248,1.715973e-003,0.30000,60.00000,6.952598e-006
 436.937,469.849,1.732178e-003,0.30002,60.00000,6.962632e-006
 438.937,469.45,1.748034e-003,0.29999,60.00000,6.971315e-006
 440.937,469.054,1.761743e-003,0.29999,60.00000,6.970191e-006
 442.937,468.661,1.777219e-003,0.29997,60.00000,6.976780e-006
 444.937,468.269,1.793180e-003,0.29998,60.00000,6.985230e-006
 446.937,467.879,1.808434e-003,0.30002,60.00000,6.990763e-006
 448.937,467.488,1.823492e-003,0.30004,60.00000,6.995277e-006
 450.937,467.097,1.838593e-003,0.30001,60.00000,6.999681e-006
 452.937,466.704,1.853244e-003,0.29997,60.00000,7.002614e-006
 454.937,466.312,1.868321e-003,0.29998,60.00000,7.006856e-006
 456.937,465.922,1.882939e-003,0.30002,60.00000,7.009381e-006
 458.937,465.534,1.898988e-003,0.30002,60.00000,7.017512e-006
 460.937,465.145,1.913629e-003,0.29999,60.00000,7.019954e-006
 462.937,464.756,1.929225e-003,0.30001,60.00000,7.026015e-006
 464.937,464.364,1.944725e-003,0.30000,60.00000,7.031734e-006
 466.937,463.97,1.960073e-003,0.30002,60.00000,7.036674e-006
 468.937,463.576,1.976122e-003,0.29999,60.00000,7.044442e-006
 470.937,463.183,1.991791e-003,0.30000,60.00000,7.050415e-006
 472.937,462.79,2.007972e-003,0.29996,60.00000,7.058378e-006
 474.937,462.398,2.024309e-003,0.29997,60.00000,7.066741e-006
 476.937,462.005,2.039645e-003,0.30000,60.00000,7.071289e-006
 478.937,461.612,2.055428e-003,0.29999,60.00000,7.077238e-006
 480.937,461.218,2.071196e-003,0.30000,60.00000,7.083314e-006
 482.937,460.822,2.087273e-003,0.29995,60.00000,7.090288e-006
 484.937,460.427,2.102720e-003,0.30000,60.00000,7.094917e-006
 486.937,460.033,2.117970e-003,0.29997,60.00000,7.098753e-006
 488.937,459.638,2.130643e-003,0.30000,60.00000,7.093165e-006
 490.937,459.242,2.145547e-003,0.30002,60.00000,7.095859e-006
 492.937,458.846,2.162211e-003,0.30000,60.00000,7.104581e-006
 494.937,458.448,2.179085e-003,0.29999,60.00000,7.113804e-006
 496.937,458.051,2.195702e-003,0.29996,60.00000,7.122164e-006
 498.937,457.653,2.212312e-003,0.30001,60.00000,7.130365e-006
 500.937,457.257,2.228705e-003,0.30000,60.00000,7.137855e-006
 502.937,456.861,2.244660e-003,0.29998,60.00000,7.143438e-006
 504.937,456.463,2.260523e-003,0.30001,60.00000,7.148752e-006
 506.937,456.064,2.274722e-003,0.30000,60.00000,7.148531e-006
 508.937,455.664,2.290560e-003,0.29999,60.00000,7.153604e-006
 510.937,455.265,2.305356e-003,0.30000,60.00000,7.155366e-006
 512.937,454.865,2.321171e-003,0.30001,60.00000,7.160246e-006
 514.937,454.465,2.337494e-003,0.29999,60.00000,7.166804e-006
 516.937,454.066,2.353348e-003,0.30000,60.00000,7.171706e-006
 518.937,453.67,2.369061e-003,0.29999,60.00000,7.176363e-006
 520.937,453.276,2.385340e-003,0.30005,60.00000,7.182346e-006
 522.937,452.885,2.402098e-003,0.30007,60.00000,7.189954e-006
 524.937,452.494,2.418673e-003,0.30001,60.00000,7.196937e-006
 526.937,452.102,2.434931e-003,0.30000,60.00000,7.202785e-006
 528.937,451.706,2.450780e-003,0.29998,60.00000,7.207348e-006
 530.937,451.308,2.465774e-003,0.29999,60.00000,7.209162e-006
 532.937,450.91,2.482568e-003,0.29999,60.00000,7.216635e-006
 534.937,450.516,2.499280e-003,0.29999,60.00000,7.223506e-006
 536.937,450.123,2.515830e-003,0.29999,60.00000,7.230082e-006
 538.937,449.731,2.532447e-003,0.29995,60.00000,7.236532e-006
 540.937,449.336,2.547771e-003,0.29998,60.00000,7.239135e-006
 542.937,448.938,2.564563e-003,0.29999,60.00000,7.246159e-006
 544.937,448.539,2.581939e-003,0.29998,60.00000,7.254754e-006
 546.937,448.139,2.599172e-003,0.29996,60.00000,7.262671e-006
 548.937,447.739,2.616299e-003,0.30000,60.00000,7.270594e-006
 550.937,447.34,2.633375e-003,0.29999,60.00000,7.277947e-006
 552.937,446.941,2.650968e-003,0.29998,60.00000,7.286757e-006
 554.937,446.543,2.668219e-003,0.29999,60.00000,7.294521e-006
 556.937,446.144,2.684653e-003,0.29998,60.00000,7.299784e-006
 558.937,445.743,2.702564e-003,0.29997,60.00000,7.309209e-006
 560.937,445.342,2.718424e-003,0.30001,60.00000,7.312896e-006
 562.937,444.941,2.735812e-003,0.29998,60.00000,7.320700e-006
 564.937,444.54,2.752842e-003,0.29998,60.00000,7.327378e-006
 566.937,444.139,2.770171e-003,0.30000,60.00000,7.334889e-006
 568.937,443.738,2.791745e-003,0.30000,60.00000,7.354096e-006
 570.937,443.336,2.809178e-003,0.29998,60.00000,7.361676e-006
 572.937,442.933,2.827035e-003,0.30000,60.00000,7.370285e-006
 574.937,442.53,2.844966e-003,0.30002,60.00000,7.379065e-006
 576.937,442.129,2.862496e-003,0.29998,60.00000,7.386655e-006
 578.937,441.728,2.879268e-003,0.30001,60.00000,7.392023e-006
 580.937,441.324,2.896087e-003,0.29990,60.00000,7.397481e-006
 582.937,440.915,2.914790e-003,0.29997,60.00000,7.407952e-006
 584.937,440.505,2.933039e-003,0.30004,60.00000,7.417131e-006
 586.937,440.097,2.951814e-003,0.30000,60.00000,7.427615e-006
 588.937,439.695,2.969251e-003,0.30001,60.00000,7.434485e-006
 590.937,439.297,2.986774e-003,0.29997,60.00000,7.441508e-006
 592.937,438.9,3.004079e-003,0.29999,60.00000,7.447618e-006
 594.937,438.502,3.021340e-003,0.29998,60.00000,7.453874e-006
 596.937,438.105,3.038138e-003,0.30000,60.00000,7.458766e-006
 598.937,437.707,3.055272e-003,0.30000,60.00000,7.464450e-006
 600.937,437.309,3.072166e-003,0.30003,60.00000,7.469420e-006
 602.937,436.909,3.089333e-003,0.30000,60.00000,7.475143e-006
 604.937,436.507,3.100716e-003,0.30000,60.00000,7.466099e-006
 606.937,436.106,3.118364e-003,0.30002,60.00000,7.472861e-006
 608.937,435.706,3.133601e-003,0.29998,60.00000,7.473686e-006
 610.937,435.308,3.149665e-003,0.30002,60.00000,7.476459e-006
 612.937,434.909,3.163243e-003,0.30000,60.00000,7.473001e-006
 614.937,434.507,3.182286e-003,0.29997,60.00000,7.483102e-006
 616.937,434.101,3.201434e-003,0.29999,60.00000,7.493416e-006
 618.937,433.692,3.220706e-003,0.30000,60.00000,7.503953e-006
 620.937,433.284,3.237903e-003,0.29997,60.00000,7.509268e-006
 622.937,432.875,3.257795e-003,0.29999,60.00000,7.521063e-006
 624.937,432.468,3.282287e-003,0.30000,60.00000,7.543916e-006
 626.937,432.064,3.301312e-003,0.30001,60.00000,7.553271e-006
 628.937,431.661,3.315807e-003,0.30000,60.00000,7.551885e-006
 630.937,431.259,3.334379e-003,0.29997,60.00000,7.560041e-006
 632.937,430.852,3.348514e-003,0.30004,60.00000,7.557725e-006
 634.937,430.444,3.367946e-003,0.30000,60.00000,7.567834e-006
 636.937,430.042,3.387910e-003,0.29999,60.00000,7.579246e-006
 638.937,429.644,3.407790e-003,0.29999,60.00000,7.590256e-006
 640.937,429.244,3.428062e-003,0.30000,60.00000,7.602012e-006
 642.937,428.841,3.447651e-003,0.30002,60.00000,7.612102e-006
 644.937,428.434,3.467053e-003,0.30001,60.00000,7.621717e-006
 646.937,428.023,3.486719e-003,0.29999,60.00000,7.631825e-006
 648.937,427.612,3.506890e-003,0.29998,60.00000,7.643039e-006
 650.937,427.207,3.527210e-003,0.29999,60.00000,7.654428e-006
 652.937,426.807,3.546698e-003,0.29999,60.00000,7.663913e-006
 654.937,426.411,3.565963e-003,0.29998,60.00000,7.672805e-006
 656.937,426.014,3.585554e-003,0.30001,60.00000,7.682211e-006
 658.937,425.614,3.605294e-003,0.30000,60.00000,7.692022e-006
 660.937,425.214,3.625193e-003,0.29997,60.00000,7.701961e-006
 662.937,424.815,3.644924e-003,0.30000,60.00000,7.711582e-006
 664.937,424.421,3.664864e-003,0.29997,60.00000,7.721511e-006
 666.937,424.031,3.684773e-003,0.30002,60.00000,7.731224e-006
 668.937,423.64,3.705011e-003,0.30000,60.00000,7.741660e-006
 670.937,423.245,3.726017e-003,0.30001,60.00000,7.753694e-006
 672.937,422.845,3.746849e-003,0.29999,60.00000,7.765175e-006
 674.937,422.444,3.765908e-003,0.29999,60.00000,7.772739e-006
 676.937,422.045,3.784972e-003,0.29998,60.00000,7.780322e-006
 678.937,421.645,3.805272e-003,0.29998,60.00000,7.790372e-006
 680.937,421.241,3.825315e-003,0.30001,60.00000,7.799892e-006
 682.937,420.835,3.845428e-003,0.30006,60.00000,7.809391e-006
 684.937,420.431,3.867356e-003,0.29997,60.00000,7.822661e-006
 686.937,420.03,3.888764e-003,0.30001,60.00000,7.834792e-006
 688.937,419.63,3.909988e-003,0.30002,60.00000,7.846387e-006
 690.937,419.227,3.931861e-003,0.30002,60.00000,7.859211e-006
 692.937,418.821,3.953172e-003,0.29998,60.00000,7.870792e-006
 694.937,418.416,3.973671e-003,0.30000,60.00000,7.880706e-006
 696.937,418.014,3.995524e-003,0.29999,60.00000,7.893107e-006
 698.937,417.615,4.016453e-003,0.29996,60.00000,7.903672e-006
 700.937,417.218,4.036966e-003,0.30000,60.00000,7.913122e-006
 702.937,416.82,4.057291e-003,0.29996,60.00000,7.922377e-006
 704.937,416.418,4.076950e-003,0.30001,60.00000,7.929976e-006
 706.937,416.012,4.097515e-003,0.29997,60.00000,7.939524e-006
 708.937,415.603,4.118415e-003,0.29999,60.00000,7.949585e-006
 710.937,415.196,4.139701e-003,0.29999,60.00000,7.960301e-006
 712.937,414.792,4.161007e-003,0.30000,60.00000,7.971089e-006
 714.937,414.392,4.182568e-003,0.30001,60.00000,7.982154e-006
 716.937,413.994,4.203796e-003,0.29997,60.00000,7.992558e-006
 718.937,413.596,4.220235e-003,0.30001,60.00000,7.993434e-006
 720.937,413.196,4.241493e-003,0.29998,60.00000,8.003738e-006
 722.937,412.798,4.262994e-003,0.29998,60.00000,8.014438e-006
 724.937,412.401,4.283913e-003,0.29997,60.00000,8.024010e-006
 726.937,412.005,4.304023e-003,0.30001,60.00000,8.031855e-006
 728.937,411.608,4.324891e-003,0.29997,60.00000,8.041073e-006
 730.937,411.209,4.346621e-003,0.29999,60.00000,8.051951e-006
 732.937,410.809,4.368551e-003,0.29999,60.00000,8.063042e-006
 734.937,410.41,4.389388e-003,0.30001,60.00000,8.072069e-006
 736.937,410.011,4.411137e-003,0.29997,60.00000,8.082607e-006
 738.937,409.614,4.432075e-003,0.29999,60.00000,8.091661e-006
 740.937,409.215,4.450961e-003,0.29998,60.00000,8.096825e-006
 742.937,408.812,4.472467e-003,0.30000,60.00000,8.106751e-006
 744.937,408.408,4.493394e-003,0.30002,60.00000,8.115567e-006
 746.937,408.005,4.514770e-003,0.29996,60.00000,8.125132e-006
 748.937,407.605,4.536483e-003,0.30002,60.00000,8.135327e-006
 750.937,407.208,4.558338e-003,0.29994,60.00000,8.145657e-006
 752.937,406.809,4.580808e-003,0.30002,60.00000,8.156980e-006
 754.937,406.406,4.602534e-003,0.30002,60.00000,8.166893e-006
 756.937,405.997,4.624848e-003,0.29993,60.00000,8.177881e-006
 758.937,405.589,4.647255e-003,0.29997,60.00000,8.188860e-006
 760.937,405.186,4.669457e-003,0.30000,60.00000,8.199442e-006
 762.937,404.783,4.691493e-003,0.29998,60.00000,8.209666e-006
 764.937,404.378,4.714329e-003,0.29997,60.00000,8.221253e-006
 766.937,403.972,4.736600e-003,0.29996,60.00000,8.231623e-006
 768.937,403.566,4.758237e-003,0.29998,60.00000,8.240932e-006
 770.937,403.159,4.779605e-003,0.29994,60.00000,8.249653e-006
 772.937,402.755,4.802431e-003,0.29999,60.00000,8.260858e-006
 774.937,402.353,4.825736e-003,0.29999,60.00000,8.272873e-006
 776.937,401.952,4.848678e-003,0.29999,60.00000,8.284190e-006
 778.937,401.553,4.871454e-003,0.30004,60.00000,8.295114e-006
 780.937,401.155,4.893986e-003,0.30004,60.00000,8.305487e-006
 782.937,400.755,4.916487e-003,0.30001,60.00000,8.315774e-006
 784.937,400.355,4.939361e-003,0.29996,60.00000,8.326624e-006
 786.937,399.958,4.961895e-003,0.30003,60.00000,8.336819e-006
 788.937,399.562,4.983927e-003,0.30001,60.00000,8.346073e-006
 790.937,399.164,5.006438e-003,0.29992,60.00000,8.356107e-006
 792.937,398.76,5.031033e-003,0.30001,60.00000,8.369652e-006
 794.937,398.358,5.054464e-003,0.29997,60.00000,8.381041e-006
 796.937,397.958,5.076887e-003,0.30004,60.00000,8.390704e-006
 798.937,397.557,5.099679e-003,0.29993,60.00000,8.400862e-006
 800.937,397.152,5.122192e-003,0.30001,60.00000,8.410603e-006
 802.937,396.747,5.145482e-003,0.30001,60.00000,8.421508e-006
 804.937,396.343,5.168540e-003,0.30003,60.00000,8.431927e-006
 806.937,395.941,5.191771e-003,0.29998,60.00000,8.442572e-006
 808.937,395.539,5.217206e-003,0.30005,60.00000,8.456823e-006
 810.937,395.138,5.242221e-003,0.30000,60.00000,8.470359e-006
 812.937,394.738,5.266085e-003,0.29996,60.00000,8.481847e-006
 814.937,394.337,5.290727e-003,0.29999,60.00000,8.494590e-006
 816.937,393.933,5.320213e-003,0.30002,60.00000,8.515075e-006
 818.937,393.529,5.346317e-003,0.30001,60.00000,8.529977e-006
 820.937,393.127,5.370182e-003,0.30000,60.00000,8.541149e-006
 822.937,392.725,5.394106e-003,0.30003,60.00000,8.552341e-006
 824.937,392.321,5.417840e-003,0.30000,60.00000,8.563066e-006
 826.937,391.916,5.441627e-003,0.30011,60.00000,8.573881e-006
 828.937,391.511,5.467408e-003,0.30001,60.00000,8.587874e-006
 830.937,391.108,5.492461e-003,0.29995,60.00000,8.600531e-006
 832.937,390.705,5.516463e-003,0.30001,60.00000,8.611457e-006
 834.937,390.299,5.542093e-003,0.30000,60.00000,8.624938e-006
 836.937,389.893,5.566024e-003,0.30001,60.00000,8.635519e-006
 838.937,389.489,5.591333e-003,0.30006,60.00000,8.648333e-006
 840.937,389.087,5.615332e-003,0.30001,60.00000,8.658979e-006
 842.937,388.687,5.640204e-003,0.29998,60.00000,8.670892e-006
 844.937,388.287,5.665797e-003,0.30006,60.00000,8.683881e-006
 846.937,387.887,5.703887e-003,0.30002,60.00000,8.716464e-006
 848.937,387.489,5.727719e-003,0.29999,60.00000,8.726441e-006
 850.937,387.093,5.751157e-003,0.30004,60.00000,8.735842e-006
 852.937,386.698,5.773064e-003,0.29997,60.00000,8.742622e-006
 854.937,386.303,5.797419e-003,0.30004,60.00000,8.753272e-006
 856.937,385.906,5.821287e-003,0.30000,60.00000,8.763162e-006
 858.937,385.504,5.844877e-003,0.29998,60.00000,8.772516e-006
 860.937,385.099,5.867777e-003,0.30001,60.00000,8.780636e-006
 862.937,384.691,5.891169e-003,0.29998,60.00000,8.789659e-006
 864.937,384.285,5.911513e-003,0.30003,60.00000,8.793923e-006
 866.937,383.882,5.935760e-003,0.29999,60.00000,8.803981e-006
 868.937,383.478,5.959561e-003,0.30001,60.00000,8.813434e-006
 870.937,383.075,5.984207e-003,0.29998,60.00000,8.824015e-006
 872.937,382.67,6.009556e-003,0.29997,60.00000,8.835662e-006
 874.937,382.268,6.040666e-003,0.30000,60.00000,8.855838e-006
 876.937,381.867,6.064974e-003,0.30006,60.00000,8.865740e-006
 878.937,381.461,6.089491e-003,0.29999,60.00000,8.875932e-006
 880.937,381.055,6.114835e-003,0.30000,60.00000,8.887195e-006
 882.937,380.65,6.141048e-003,0.29998,60.00000,8.899802e-006
 884.937,380.247,6.166870e-003,0.29995,60.00000,8.911656e-006
 886.937,379.843,6.192096e-003,0.30002,60.00000,8.922537e-006
 888.937,379.437,6.217028e-003,0.30005,60.00000,8.933009e-006
 890.937,379.032,6.241787e-003,0.30001,60.00000,8.943137e-006
 892.937,378.628,6.266455e-003,0.29999,60.00000,8.953063e-006
 894.937,378.227,6.307482e-003,0.30003,60.00000,8.986858e-006
 896.937,377.83,6.335126e-003,0.29997,60.00000,9.000921e-006
 898.937,377.437,6.361184e-003,0.30002,60.00000,9.012608e-006
 900.937,377.044,6.387603e-003,0.30001,60.00000,9.024727e-006
 902.937,376.65,6.413248e-003,0.30006,60.00000,9.035671e-006
 904.937,376.253,6.438754e-003,0.30003,60.00000,9.046424e-006
 906.937,375.857,6.464342e-003,0.29996,60.00000,9.057225e-006
 908.937,375.462,6.489619e-003,0.29999,60.00000,9.067363e-006
 910.937,375.066,6.514698e-003,0.29996,60.00000,9.077315e-006
 912.937,374.668,6.541299e-003,0.30002,60.00000,9.089303e-006
 914.937,374.264,6.569944e-003,0.30000,60.00000,9.104184e-006
 916.937,373.857,6.596764e-003,0.30002,60.00000,9.116360e-006
 918.937,373.447,6.622205e-003,0.29996,60.00000,9.126509e-006
 920.937,373.033,6.646576e-003,0.30000,60.00000,9.135122e-006
 922.937,372.618,6.671551e-003,0.30003,60.00000,9.144520e-006
 924.937,372.204,6.696580e-003,0.29996,60.00000,9.154011e-006
 926.937,371.794,6.722232e-003,0.30000,60.00000,9.164184e-006
 928.937,371.39,6.748459e-003,0.30001,60.00000,9.175262e-006
 930.937,370.999,6.776971e-003,0.29997,60.00000,9.189252e-006
 932.937,370.609,6.806476e-003,0.29997,60.00000,9.204629e-006
 934.937,370.215,6.833090e-003,0.29995,60.00000,9.215984e-006
 936.937,369.815,6.859781e-003,0.29999,60.00000,9.227357e-006
 938.937,369.412,6.886929e-003,0.30001,60.00000,9.239265e-006
 940.937,369.007,6.913779e-003,0.30001,60.00000,9.250706e-006
 942.937,368.6,6.940926e-003,0.29998,60.00000,9.262496e-006
 944.937,368.194,6.968540e-003,0.29991,60.00000,9.274912e-006
 946.937,367.789,6.999052e-003,0.30001,60.00000,9.291128e-006
 948.937,367.385,7.027096e-003,0.30000,60.00000,9.303912e-006
 950.937,366.982,7.055744e-003,0.29999,60.00000,9.317532e-006
 952.937,366.583,7.083483e-003,0.30000,60.00000,9.329729e-006
 954.937,366.187,7.110752e-003,0.29996,60.00000,9.341259e-006
 956.937,365.795,7.138709e-003,0.29999,60.00000,9.353709e-006
 958.937,365.403,7.165720e-003,0.30003,60.00000,9.364779e-006
 960.937,365.009,7.191938e-003,0.29996,60.00000,9.374742e-006
 962.937,364.61,7.218432e-003,0.29996,60.00000,9.385040e-006
 964.937,364.209,7.273931e-003,0.29998,60.00000,9.433699e-006
 966.937,363.811,7.301365e-003,0.30001,60.00000,9.445038e-006
 968.937,363.416,7.329383e-003,0.30001,60.00000,9.457045e-006
 970.937,363.023,7.356989e-003,0.30001,60.00000,9.468450e-006
 972.937,362.624,7.383216e-003,0.29999,60.00000,9.478025e-006
 974.937,362.22,7.410050e-003,0.29999,60.00000,9.488358e-006
 976.937,361.81,7.437692e-003,0.30001,60.00000,9.499673e-006
 978.937,361.401,7.465344e-003,0.30001,60.00000,9.510865e-006
 980.937,360.994,7.491738e-003,0.29996,60.00000,9.520488e-006
 982.937,360.587,7.519202e-003,0.29999,60.00000,9.531324e-006
 984.937,360.181,7.546743e-003,0.30005,60.00000,9.542287e-006
 986.937,359.774,7.586529e-003,0.30002,60.00000,9.568898e-006
 988.937,359.369,7.615374e-003,0.29999,60.00000,9.581394e-006
 990.937,358.964,7.644752e-003,0.30001,60.00000,9.594514e-006
 992.937,358.562,7.672957e-003,0.30001,60.00000,9.605978e-006
 994.937,358.159,7.700176e-003,0.30002,60.00000,9.616222e-006
 996.937,357.755,7.727337e-003,0.30002,60.00000,9.626293e-006
 998.937,357.35,7.755793e-003,0.29999,60.00000,9.637920e-006
1000.94,356.941,7.789916e-003,0.30001,60.00000,9.656688e-006
1002.94,356.53,7.817526e-003,0.30000,60.00000,9.667198e-006
1004.94,356.123,7.847000e-003,0.29996,60.00000,9.679927e-006
1006.94,355.722,7.877714e-003,0.30001,60.00000,9.694172e-006
1008.94,355.324,7.907400e-003,0.29999,60.00000,9.707060e-006
1010.94,354.928,7.936846e-003,0.30000,60.00000,9.719644e-006
1012.94,354.534,7.964773e-003,0.29999,60.00000,9.730144e-006
1014.94,354.139,7.992963e-003,0.30002,60.00000,9.740976e-006
1016.94,353.74,8.020819e-003,0.29998,60.00000,9.751359e-006
1018.94,353.342,8.048919e-003,0.30000,60.00000,9.762018e-006
1020.94,352.946,8.077280e-003,0.30001,60.00000,9.772921e-006
1022.94,352.55,8.106251e-003,0.29999,60.00000,9.784490e-006
1024.94,352.155,8.134981e-003,0.30000,60.00000,9.795741e-006
1026.94,351.758,8.163039e-003,0.30004,60.00000,9.806048e-006
1028.94,351.356,8.191777e-003,0.30000,60.00000,9.817245e-006
1030.94,350.954,8.220120e-003,0.29996,60.00000,9.827835e-006
1032.94,350.551,8.248044e-003,0.30002,60.00000,9.837936e-006
1034.94,350.144,8.277123e-003,0.30001,60.00000,9.849315e-006
1036.94,349.733,8.306015e-003,0.30000,60.00000,9.860419e-006
1038.94,349.321,8.334798e-003,0.30001,60.00000,9.871375e-006
1040.94,348.912,8.363395e-003,0.29997,60.00000,9.882031e-006
1042.94,348.504,8.392296e-003,0.30000,60.00000,9.892984e-006
1044.94,348.102,8.421020e-003,0.30004,60.00000,9.903669e-006
1046.94,347.702,8.449485e-003,0.29997,60.00000,9.913983e-006
1048.94,347.298,8.479532e-003,0.29996,60.00000,9.926321e-006
1050.94,346.899,8.511076e-003,0.29999,60.00000,9.940074e-006
1052.94,346.495,8.541854e-003,0.30005,60.00000,9.953011e-006
1054.94,346.088,8.578276e-003,0.30000,60.00000,9.972546e-006
1056.94,345.681,8.608106e-003,0.30001,60.00000,9.984267e-006
1058.94,345.277,8.639500e-003,0.30001,60.00000,9.997648e-006
1060.94,344.873,8.669753e-003,0.30002,60.00000,1.000976e-005
1062.94,344.469,8.699046e-003,0.30014,60.00000,1.002070e-005
1064.94,344.065,8.729277e-003,0.30000,60.00000,1.003261e-005
1066.94,343.664,8.761516e-003,0.29998,60.00000,1.004680e-005
1068.94,343.265,8.790943e-003,0.29999,60.00000,1.005765e-005
1070.94,342.868,8.819297e-003,0.30000,60.00000,1.006722e-005
1072.94,342.472,8.847048e-003,0.29995,60.00000,1.007604e-005
1074.94,342.075,8.875333e-003,0.29998,60.00000,1.008542e-005
1076.94,341.681,8.903173e-003,0.29996,60.00000,1.009425e-005
1078.94,341.286,8.932071e-003,0.30003,60.00000,1.010431e-005
1080.94,340.889,8.961055e-003,0.29996,60.00000,1.011437e-005
1082.94,340.489,8.990319e-003,0.30002,60.00000,1.012469e-005
1084.94,340.086,9.020324e-003,0.29999,60.00000,1.013582e-005
1086.94,339.684,9.049509e-003,0.29997,60.00000,1.014602e-005
1088.94,339.279,9.078975e-003,0.29998,60.00000,1.015647e-005
1090.94,338.878,9.112456e-003,0.29997,60.00000,1.017144e-005
1092.94,338.48,9.142748e-003,0.30001,60.00000,1.018264e-005
1094.94,338.078,9.172274e-003,0.30002,60.00000,1.019308e-005
1096.94,337.677,9.202245e-003,0.29998,60.00000,1.020382e-005
1098.94,337.274,9.230773e-003,0.29998,60.00000,1.021294e-005
1100.94,336.868,9.260228e-003,0.29998,60.00000,1.022310e-005
1102.94,336.461,9.289317e-003,0.29996,60.00000,1.023279e-005
1104.94,336.052,9.318523e-003,0.29996,60.00000,1.024254e-005
1106.94,335.643,9.348605e-003,0.30002,60.00000,1.025327e-005
1108.94,335.237,9.378847e-003,0.30001,60.00000,1.026409e-005
1110.94,334.833,9.408182e-003,0.30003,60.00000,1.027386e-005
1112.94,334.422,9.437607e-003,0.29995,60.00000,1.028374e-005
1114.94,334.008,9.467203e-003,0.29998,60.00000,1.029368e-005
1116.94,333.597,9.498649e-003,0.30001,60.00000,1.030567e-005
1118.94,333.198,9.530429e-003,0.29998,60.00000,1.031802e-005
1120.94,332.814,9.561069e-003,0.30001,60.00000,1.032894e-005
1122.94,332.433,9.591965e-003,0.30001,60.00000,1.034008e-005
1124.94,332.039,9.623070e-003,0.30002,60.00000,1.035154e-005
1126.94,331.645,9.655565e-003,0.29998,60.00000,1.036439e-005
1128.94,331.248,9.689976e-003,0.29998,60.00000,1.037922e-005
1130.94,330.849,9.722376e-003,0.29997,60.00000,1.039191e-005
1132.94,330.45,9.753299e-003,0.29996,60.00000,1.040289e-005
1134.94,330.049,9.782760e-003,0.30000,60.00000,1.041225e-005
1136.94,329.651,9.813575e-003,0.30001,60.00000,1.042300e-005
1138.94,329.254,9.845866e-003,0.30001,60.00000,1.043537e-005
1140.94,328.855,9.874777e-003,0.29999,60.00000,1.044402e-005
1142.94,328.451,9.903158e-003,0.30000,60.00000,1.045201e-005
1144.94,328.041,9.932106e-003,0.30001,60.00000,1.046066e-005
1146.94,327.625,9.961539e-003,0.29999,60.00000,1.046971e-005
1148.94,327.207,9.991212e-003,0.29997,60.00000,1.047902e-005
1150.94,326.795,1.002291e-002,0.29993,60.00000,1.049038e-005
1152.94,326.383,1.005327e-002,0.30002,60.00000,1.050041e-005
1154.94,325.969,1.008349e-002,0.30000,60.00000,1.051015e-005
1156.94,325.553,1.011494e-002,0.29997,60.00000,1.052113e-005
1158.94,325.138,1.014450e-002,0.30000,60.00000,1.053014e-005
1160.94,324.724,1.017346e-002,0.30003,60.00000,1.053844e-005
1162.94,324.311,1.020319e-002,0.30000,60.00000,1.054751e-005
1164.94,323.901,1.023246e-002,0.30010,60.00000,1.055611e-005
1166.94,323.495,1.026260e-002,0.30002,60.00000,1.056552e-005
1168.94,323.092,1.029325e-002,0.30000,60.00000,1.057540e-005
1170.94,322.681,1.032427e-002,0.29998,60.00000,1.058567e-005
1172.94,322.258,1.035505e-002,0.29997,60.00000,1.059564e-005
1174.94,321.823,1.038587e-002,0.29997,60.00000,1.060566e-005
1176.94,321.409,1.041854e-002,0.30000,60.00000,1.061761e-005
1178.94,321.041,1.045146e-002,0.29994,60.00000,1.062970e-005
1180.94,320.709,1.048668e-002,0.29996,60.00000,1.064405e-005
1182.94,320.402,1.052226e-002,0.29998,60.00000,1.065864e-005
1184.94,320.1,1.055571e-002,0.29999,60.00000,1.067085e-005
1186.94,319.759,1.058291e-002,0.30001,60.00000,1.067676e-005
1188.94,319.298,1.060643e-002,0.30000,60.00000,1.067913e-005
1190.94,318.718,1.063640e-002,0.29997,60.00000,1.068840e-005
1192.94,318.284,1.067151e-002,0.30023,60.00000,1.070203e-005
1194.94,317.889,1.070336e-002,0.30001,60.00000,1.071263e-005
1196.94,317.483,1.073317e-002,0.30001,60.00000,1.072110e-005
1198.94,317.05,1.076292e-002,0.30002,60.00000,1.072952e-005
1200.94,316.587,1.079347e-002,0.29997,60.00000,1.073873e-005
1202.94,316.144,1.082487e-002,0.30003,60.00000,1.074887e-005
1204.94,315.768,1.085907e-002,0.30004,60.00000,1.076171e-005
1206.94,315.449,1.089450e-002,0.30000,60.00000,1.077567e-005
1208.94,315.162,1.092921e-002,0.30001,60.00000,1.078850e-005
1210.94,314.864,1.095820e-002,0.30001,60.00000,1.079564e-005
1212.94,314.488,1.098278e-002,0.30000,60.00000,1.079873e-005
1214.94,313.939,1.100514e-002,0.30002,60.00000,1.079970e-005
1216.94,313.323,1.103466e-002,0.30000,60.00000,1.080775e-005
1218.94,312.827,1.106574e-002,0.30000,60.00000,1.081714e-005
1220.94,312.42,1.109989e-002,0.30009,60.00000,1.082967e-005
1222.94,312.098,1.113757e-002,0.30003,60.00000,1.084541e-005
1224.94,311.823,1.117418e-002,0.29997,60.00000,1.086004e-005
1226.94,311.562,1.120709e-002,0.30002,60.00000,1.087071e-005
1228.94,311.28,1.123627e-002,0.29998,60.00000,1.087783e-005
1230.94,310.933,1.126380e-002,0.29997,60.00000,1.088359e-005
1232.94,310.467,1.128902e-002,0.29999,60.00000,1.088701e-005
1234.94,309.796,1.131135e-002,0.30000,60.00000,1.088798e-005
1236.94,309.236,1.134320e-002,0.30006,60.00000,1.089780e-005
1238.94,308.83,1.137908e-002,0.29999,60.00000,1.091164e-005
1240.94,308.522,1.141673e-002,0.29997,60.00000,1.092698e-005
1242.94,308.258,1.145074e-002,0.30001,60.00000,1.093839e-005
1244.94,307.997,1.148150e-002,0.30000,60.00000,1.094675e-005
1246.94,307.707,1.151022e-002,0.30000,60.00000,1.095330e-005
1248.94,307.364,1.153722e-002,0.30002,60.00000,1.095823e-005
1250.94,306.924,1.155982e-002,0.29999,60.00000,1.095884e-005
1252.94,306.158,1.157733e-002,0.30000,60.00000,1.095499e-005
1254.94,305.531,1.160956e-002,0.30003,60.00000,1.096504e-005
1256.94,305.137,1.164536e-002,0.30000,60.00000,1.097831e-005
1258.94,304.825,1.168114e-002,0.29998,60.00000,1.099139e-005
1260.94,304.549,1.171541e-002,0.30000,60.00000,1.100302e-005
1262.94,304.283,1.174732e-002,0.30002,60.00000,1.101220e-005
1264.94,304,1.177597e-002,0.30011,60.00000,1.101831e-005
1266.94,303.666,1.180466e-002,0.30002,60.00000,1.102461e-005
1268.94,303.242,1.183036e-002,0.29998,60.00000,1.102808e-005
1270.94,302.614,1.185154e-002,0.30000,60.00000,1.102746e-005
1272.94,301.958,1.188168e-002,0.29996,60.00000,1.103518e-005
1274.94,301.467,1.191572e-002,0.30002,60.00000,1.104649e-005
1276.94,301.064,1.195113e-002,0.30000,60.00000,1.105902e-005
1278.94,300.728,1.198644e-002,0.29992,60.00000,1.107135e-005
1280.94,300.434,1.202183e-002,0.30000,60.00000,1.108357e-005
1282.94,300.149,1.205563e-002,0.29997,60.00000,1.109423e-005
1284.94,299.851,1.208631e-002,0.30002,60.00000,1.110200e-005
1286.94,299.516,1.211635e-002,0.30000,60.00000,1.110944e-005
1288.94,299.145,1.214606e-002,0.29998,60.00000,1.111632e-005
1290.94,298.699,1.217257e-002,0.30003,60.00000,1.112028e-005
1292.94,298.13,1.219774e-002,0.30001,60.00000,1.112324e-005
1294.94,297.616,1.222890e-002,0.29996,60.00000,1.113136e-005
1296.94,297.161,1.226075e-002,0.29998,60.00000,1.114030e-005
1298.94,296.755,1.229400e-002,0.30002,60.00000,1.115044e-005
1300.94,296.4,1.232737e-002,0.29998,60.00000,1.116036e-005
1302.94,296.054,1.236028e-002,0.30002,60.00000,1.117012e-005
1304.94,295.709,1.239299e-002,0.30000,60.00000,1.117958e-005
1306.94,295.365,1.242488e-002,0.30001,60.00000,1.118821e-005
1308.94,295.019,1.245712e-002,0.29999,60.00000,1.119719e-005
1310.94,294.656,1.248912e-002,0.30002,60.00000,1.120578e-005
1312.94,294.225,1.251715e-002,0.29996,60.00000,1.121089e-005
1314.94,293.693,1.254539e-002,0.29998,60.00000,1.121636e-005
1316.94,293.191,1.257812e-002,0.30003,60.00000,1.122572e-005
1318.94,292.759,1.261099e-002,0.30000,60.00000,1.123506e-005
1320.94,292.352,1.264294e-002,0.30001,60.00000,1.124353e-005
1322.94,291.94,1.267366e-002,0.29999,60.00000,1.125087e-005
1324.94,291.491,1.270528e-002,0.30000,60.00000,1.125912e-005
1326.94,291.05,1.273968e-002,0.29996,60.00000,1.126987e-005
1328.94,290.649,1.277431e-002,0.30001,60.00000,1.128059e-005
1330.94,290.268,1.280921e-002,0.30000,60.00000,1.129160e-005
1332.94,289.902,1.284410e-002,0.29998,60.00000,1.130257e-005
1334.94,289.544,1.287969e-002,0.29989,60.00000,1.131404e-005
1336.94,289.187,1.291659e-002,0.29999,60.00000,1.132672e-005
1338.94,288.819,1.295234e-002,0.30001,60.00000,1.133820e-005
1340.94,288.399,1.298580e-002,0.29994,60.00000,1.134779e-005
1342.94,287.91,1.301977e-002,0.29998,60.00000,1.135783e-005
1344.94,287.446,1.305736e-002,0.30002,60.00000,1.137102e-005
1346.94,287.054,1.309425e-002,0.29992,60.00000,1.138341e-005
1348.94,286.679,1.313071e-002,0.29999,60.00000,1.139533e-005
1350.94,286.289,1.316662e-002,0.30001,60.00000,1.140687e-005
1352.94,285.883,1.320223e-002,0.30001,60.00000,1.141803e-005
1354.94,285.459,1.323888e-002,0.29996,60.00000,1.143022e-005
1356.94,285.058,1.327683e-002,0.30000,60.00000,1.144325e-005
1358.94,284.656,1.331206e-002,0.30009,60.00000,1.145406e-005
1360.94,284.229,1.334880e-002,0.30000,60.00000,1.146607e-005
1362.94,283.798,1.338639e-002,0.29998,60.00000,1.147882e-005
1364.94,283.381,1.342564e-002,0.29995,60.00000,1.149301e-005
1366.94,283.005,1.346509e-002,0.29999,60.00000,1.150709e-005
1368.94,282.64,1.350245e-002,0.29998,60.00000,1.151943e-005
1370.94,282.26,1.354163e-002,0.29999,60.00000,1.153342e-005
1372.94,281.885,1.358245e-002,0.30001,60.00000,1.154868e-005
1374.94,281.514,1.362264e-002,0.29996,60.00000,1.156335e-005
1376.94,281.146,1.366370e-002,0.30001,60.00000,1.157872e-005
1378.94,280.789,1.370603e-002,0.29998,60.00000,1.159521e-005
1380.94,280.451,1.374819e-002,0.29996,60.00000,1.161135e-005
1382.94,280.121,1.379192e-002,0.30002,60.00000,1.162878e-005
1384.94,279.79,1.383595e-002,0.29998,60.00000,1.164645e-005
1386.94,279.459,1.388039e-002,0.30003,60.00000,1.166439e-005
1388.94,279.122,1.392511e-002,0.29997,60.00000,1.168261e-005
1390.94,278.775,1.397023e-002,0.29989,60.00000,1.170093e-005
1392.94,278.411,1.401912e-002,0.30000,60.00000,1.172258e-005
1394.94,278.052,1.406909e-002,0.29998,60.00000,1.174494e-005
1396.94,277.698,1.412042e-002,0.30001,60.00000,1.176837e-005
1398.94,277.329,1.417266e-002,0.29999,60.00000,1.179245e-005
1399.94,277.126,1.420063e-002,0.29985,60.00000,1.180595e-005